onset	duration	trial_type	value	sample	stimulus	target	blank_jitter_frames	accuracy	response_time	block
0.0	217.26	BAD_break	3	0	n/a	n/a	n/a	n/a	n/a	n/a
217.76	0.0	nontarget	5	217760	m	0	21.0	n/a	n/a	1
220.293	0.0	nontarget	5	220293	q	0	49.0	n/a	n/a	1
222.61	0.0	nontarget	5	222610	s	0	36.0	n/a	n/a	1
224.81	0.0	nontarget	5	224810	f	0	29.0	n/a	n/a	1
227.16	0.0	target	6	227160	w	1	38.0	1	0.4888623	1
227.526	0.5	BAD keypress	2	227526	n/a	n/a	n/a	n/a	n/a	n/a
227.776	0.0	keypress	4	227776	n/a	n/a	n/a	n/a	n/a	n/a
229.476	0.0	nontarget	5	229476	i	0	42.0	n/a	n/a	1
231.493	0.0	target	6	231493	u	1	18.0	1	0.4113781	1
231.81	0.5	BAD keypress	2	231810	n/a	n/a	n/a	n/a	n/a	n/a
232.06	0.0	keypress	4	232060	n/a	n/a	n/a	n/a	n/a	n/a
233.626	0.0	nontarget	5	233626	s	0	35.0	n/a	n/a	1
235.693	0.0	nontarget	5	235693	ß	0	21.0	n/a	n/a	1
237.876	0.0	target	6	237876	c	1	28.0	1	0.4598937	1
238.226	0.5	BAD keypress	2	238226	n/a	n/a	n/a	n/a	n/a	n/a
238.476	0.0	keypress	4	238476	n/a	n/a	n/a	n/a	n/a	n/a
240.209	0.0	nontarget	5	240209	i	0	45.0	n/a	n/a	1
242.376	0.0	nontarget	5	242376	h	0	27.0	n/a	n/a	1
244.342	0.0	nontarget	5	244342	j	0	15.0	n/a	n/a	1
246.425	0.0	nontarget	5	246425	y	0	22.0	n/a	n/a	1
248.975	0.0	nontarget	5	248975	e	0	50.0	n/a	n/a	1
250.992	0.0	nontarget	5	250992	s	0	18.0	n/a	n/a	1
253.025	0.0	nontarget	5	253025	u	0	19.0	n/a	n/a	1
255.442	0.0	nontarget	5	255442	o	0	42.0	n/a	n/a	1
257.742	0.0	nontarget	5	257742	ü	0	35.0	n/a	n/a	1
260.291	0.0	target	6	260291	o	1	50.0	1	0.4267666	1
260.642	0.5	BAD keypress	2	260642	n/a	n/a	n/a	n/a	n/a	n/a
260.892	0.0	keypress	4	260892	n/a	n/a	n/a	n/a	n/a	n/a
262.275	0.0	nontarget	5	262275	m	0	24.0	n/a	n/a	1
264.625	0.0	target	6	264625	ä	1	38.0	1	0.3973078	1
264.991	0.5	BAD keypress	2	264991	n/a	n/a	n/a	n/a	n/a	n/a
265.241	0.0	keypress	4	265241	n/a	n/a	n/a	n/a	n/a	n/a
267.024	0.0	nontarget	5	267024	o	0	48.0	n/a	n/a	1
269.491	0.0	nontarget	5	269491	n	0	45.0	n/a	n/a	1
271.941	0.0	nontarget	5	271941	r	0	44.0	n/a	n/a	1
274.041	0.0	nontarget	5	274041	t	0	23.0	n/a	n/a	1
276.224	0.0	nontarget	5	276224	y	0	28.0	n/a	n/a	1
278.341	0.0	nontarget	5	278341	z	0	24.0	n/a	n/a	1
280.641	0.0	nontarget	5	280641	x	0	35.0	n/a	n/a	1
282.707	0.0	nontarget	5	282707	e	0	21.0	n/a	n/a	1
284.674	0.0	nontarget	5	284674	q	0	15.0	n/a	n/a	1
286.99	0.0	nontarget	5	286990	o	0	36.0	n/a	n/a	1
289.357	0.0	nontarget	5	289357	a	0	39.0	n/a	n/a	1
291.757	0.0	nontarget	5	291757	k	0	41.0	n/a	n/a	1
293.94	0.0	nontarget	5	293940	ä	0	28.0	n/a	n/a	1
296.323	0.0	nontarget	5	296323	q	0	40.0	n/a	n/a	1
298.39	0.0	nontarget	5	298390	l	0	21.0	n/a	n/a	1
300.59	0.0	target	6	300590	a	1	29.0	1	0.4939461	1
301.04	0.5	BAD keypress	2	301040	n/a	n/a	n/a	n/a	n/a	n/a
301.29	0.0	keypress	4	301290	n/a	n/a	n/a	n/a	n/a	n/a
302.69	0.0	nontarget	5	302690	n	0	25.0	n/a	n/a	1
305.023	0.0	target	6	305023	l	1	37.0	1	0.5084578	1
305.456	0.5	BAD keypress	2	305456	n/a	n/a	n/a	n/a	n/a	n/a
305.706	0.0	keypress	4	305706	n/a	n/a	n/a	n/a	n/a	n/a
307.173	0.0	nontarget	5	307173	o	0	28.0	n/a	n/a	1
309.623	0.0	target	6	309623	b	1	44.0	1	0.4203273	1
309.989	0.5	BAD keypress	2	309989	n/a	n/a	n/a	n/a	n/a	n/a
310.239	0.0	keypress	4	310239	n/a	n/a	n/a	n/a	n/a	n/a
311.506	0.0	target	6	311506	j	1	17.0	1	0.5529939	1
311.973	0.5	BAD keypress	2	311973	n/a	n/a	n/a	n/a	n/a	n/a
312.223	0.0	keypress	4	312223	n/a	n/a	n/a	n/a	n/a	n/a
313.489	0.0	nontarget	5	313489	c	0	17.0	n/a	n/a	1
316.022	0.0	nontarget	5	316022	b	0	49.0	n/a	n/a	1
318.006	0.0	nontarget	5	318006	z	0	16.0	n/a	n/a	1
320.305	0.0	nontarget	5	320305	ö	0	35.0	n/a	n/a	1
322.305	0.0	nontarget	5	322305	t	0	17.0	n/a	n/a	1
324.555	0.0	nontarget	5	324555	q	0	32.0	n/a	n/a	1
326.638	0.0	nontarget	5	326638	v	0	22.0	n/a	n/a	1
329.172	0.0	target	6	329172	l	1	49.0	1	0.4538297	1
329.605	0.5	BAD keypress	2	329605	n/a	n/a	n/a	n/a	n/a	n/a
329.855	0.0	keypress	4	329855	n/a	n/a	n/a	n/a	n/a	n/a
331.122	0.0	nontarget	5	331122	u	0	17.0	n/a	n/a	1
333.122	0.0	nontarget	5	333122	d	0	17.0	n/a	n/a	1
335.638	0.0	target	6	335638	j	1	48.0	1	0.5630239	1
336.121	0.5	BAD keypress	2	336121	n/a	n/a	n/a	n/a	n/a	n/a
336.371	0.0	keypress	4	336371	n/a	n/a	n/a	n/a	n/a	n/a
338.021	0.0	nontarget	5	338021	z	0	40.0	n/a	n/a	1
340.338	0.0	nontarget	5	340338	t	0	36.0	n/a	n/a	1
342.404	0.0	nontarget	5	342404	k	0	21.0	n/a	n/a	1
344.854	0.0	nontarget	5	344854	v	0	44.0	n/a	n/a	1
347.138	0.0	nontarget	5	347138	ö	0	34.0	n/a	n/a	1
349.087	0.0	nontarget	5	349087	z	0	14.0	n/a	n/a	1
351.204	0.0	nontarget	5	351204	f	0	24.0	n/a	n/a	1
353.187	0.0	nontarget	5	353187	h	0	16.0	n/a	n/a	1
355.554	0.0	nontarget	5	355554	m	0	39.0	n/a	n/a	1
357.504	0.0	nontarget	5	357504	t	0	14.0	n/a	n/a	1
359.52	0.0	nontarget	5	359520	z	0	18.0	n/a	n/a	1
361.52	0.0	nontarget	5	361520	a	0	17.0	n/a	n/a	1
362.62	16.033000000000015	BAD_break	3	362620	n/a	n/a	n/a	n/a	n/a	n/a
378.903	0.5	BAD keypress	2	378903	n/a	n/a	n/a	n/a	n/a	n/a
379.153	0.0	keypress	4	379153	n/a	n/a	n/a	n/a	n/a	n/a
380.569	0.0	nontarget	5	380569	w	0	27.0	n/a	n/a	2
382.919	0.0	target	6	382919	t	1	38.0	1	0.4626707	2
383.319	0.5	BAD keypress	2	383319	n/a	n/a	n/a	n/a	n/a	n/a
383.569	0.0	keypress	4	383569	n/a	n/a	n/a	n/a	n/a	n/a
385.369	0.0	nontarget	5	385369	y	0	49.0	n/a	n/a	2
387.919	0.0	target	6	387919	h	1	50.0	1	0.3745476	2
388.202	0.5	BAD keypress	2	388202	n/a	n/a	n/a	n/a	n/a	n/a
388.452	0.0	keypress	4	388452	n/a	n/a	n/a	n/a	n/a	n/a
390.086	0.0	nontarget	5	390086	p	0	39.0	n/a	n/a	2
392.136	0.0	target	6	392136	m	1	20.0	1	0.4138743	2
392.469	0.5	BAD keypress	2	392469	n/a	n/a	n/a	n/a	n/a	n/a
392.719	0.0	keypress	4	392719	n/a	n/a	n/a	n/a	n/a	n/a
394.402	0.0	nontarget	5	394402	a	0	42.0	n/a	n/a	2
396.535	0.0	target	6	396535	f	1	25.0	1	0.3816474	2
396.835	0.5	BAD keypress	2	396835	n/a	n/a	n/a	n/a	n/a	n/a
397.085	0.0	keypress	4	397085	n/a	n/a	n/a	n/a	n/a	n/a
398.435	0.0	nontarget	5	398435	n	0	22.0	n/a	n/a	2
400.818	0.0	nontarget	5	400818	o	0	40.0	n/a	n/a	2
402.785	0.0	nontarget	5	402785	x	0	15.0	n/a	n/a	2
404.802	0.0	nontarget	5	404802	u	0	18.0	n/a	n/a	2
407.002	0.0	nontarget	5	407002	s	0	29.0	n/a	n/a	2
409.468	0.0	nontarget	5	409468	e	0	45.0	n/a	n/a	2
411.785	0.0	nontarget	5	411785	ü	0	36.0	n/a	n/a	2
413.818	0.0	target	6	413818	a	1	19.0	1	0.4260093	2
414.151	0.5	BAD keypress	2	414151	n/a	n/a	n/a	n/a	n/a	n/a
414.401	0.0	keypress	4	414401	n/a	n/a	n/a	n/a	n/a	n/a
415.751	0.0	nontarget	5	415751	ä	0	22.0	n/a	n/a	2
418.184	0.0	nontarget	5	418184	b	0	43.0	n/a	n/a	2
420.718	0.0	nontarget	5	420718	o	0	49.0	n/a	n/a	2
422.851	0.0	nontarget	5	422851	l	0	25.0	n/a	n/a	2
425.367	0.0	nontarget	5	425367	m	0	48.0	n/a	n/a	2
427.917	0.0	nontarget	5	427917	d	0	50.0	n/a	n/a	2
430.234	0.0	nontarget	5	430234	ä	0	33.0	n/a	n/a	2
432.434	0.0	nontarget	5	432434	v	0	29.0	n/a	n/a	2
434.434	0.0	nontarget	5	434434	f	0	17.0	n/a	n/a	2
436.45	0.0	target	6	436450	k	1	18.0	1	0.4161765	2
436.8	0.5	BAD keypress	2	436800	n/a	n/a	n/a	n/a	n/a	n/a
437.05	0.0	keypress	4	437050	n/a	n/a	n/a	n/a	n/a	n/a
438.333	0.0	nontarget	5	438333	l	0	18.0	n/a	n/a	2
440.6	0.0	nontarget	5	440600	d	0	33.0	n/a	n/a	2
442.75	0.0	nontarget	5	442750	ö	0	26.0	n/a	n/a	2
445.0	0.0	nontarget	5	445000	q	0	32.0	n/a	n/a	2
447.216	0.0	nontarget	5	447216	g	0	30.0	n/a	n/a	2
449.6	0.0	nontarget	5	449600	c	0	40.0	n/a	n/a	2
451.566	0.0	target	6	451566	o	1	15.0	1	0.5152153	2
451.983	0.5	BAD keypress	2	451983	n/a	n/a	n/a	n/a	n/a	n/a
452.233	0.0	keypress	4	452233	n/a	n/a	n/a	n/a	n/a	n/a
453.849	0.0	nontarget	5	453849	ß	0	38.0	n/a	n/a	2
455.949	0.0	nontarget	5	455949	p	0	23.0	n/a	n/a	2
458.483	0.0	nontarget	5	458483	l	0	49.0	n/a	n/a	2
460.999	0.0	nontarget	5	460999	ä	0	48.0	n/a	n/a	2
462.999	0.0	target	6	462999	x	1	17.0	1	0.4096736	2
463.349	0.5	BAD keypress	2	463349	n/a	n/a	n/a	n/a	n/a	n/a
463.599	0.0	keypress	4	463599	n/a	n/a	n/a	n/a	n/a	n/a
464.999	0.0	nontarget	5	464999	e	0	25.0	n/a	n/a	2
467.016	0.0	target	6	467016	y	1	18.0	1	0.4087672	2
467.316	0.5	BAD keypress	2	467316	n/a	n/a	n/a	n/a	n/a	n/a
467.566	0.0	keypress	4	467566	n/a	n/a	n/a	n/a	n/a	n/a
469.232	0.0	nontarget	5	469232	ü	0	41.0	n/a	n/a	2
471.332	0.0	target	6	471332	d	1	23.0	1	0.3959733	2
471.632	0.5	BAD keypress	2	471632	n/a	n/a	n/a	n/a	n/a	n/a
471.882	0.0	keypress	4	471882	n/a	n/a	n/a	n/a	n/a	n/a
473.565	0.0	nontarget	5	473565	e	0	42.0	n/a	n/a	2
475.965	0.0	nontarget	5	475965	ä	0	41.0	n/a	n/a	2
478.082	0.0	nontarget	5	478082	t	0	24.0	n/a	n/a	2
480.032	0.0	nontarget	5	480032	c	0	14.0	n/a	n/a	2
481.982	0.0	nontarget	5	481982	b	0	14.0	n/a	n/a	2
484.348	0.0	target	6	484348	p	1	39.0	1	0.3710609	2
484.598	0.5	BAD keypress	2	484598	n/a	n/a	n/a	n/a	n/a	n/a
484.848	0.0	keypress	4	484848	n/a	n/a	n/a	n/a	n/a	n/a
486.398	0.0	nontarget	5	486398	h	0	34.0	n/a	n/a	2
488.915	0.0	nontarget	5	488915	t	0	48.0	n/a	n/a	2
491.181	0.0	nontarget	5	491181	d	0	33.0	n/a	n/a	2
493.348	0.0	target	6	493348	p	1	27.0	1	0.3787766	2
493.648	0.5	BAD keypress	2	493648	n/a	n/a	n/a	n/a	n/a	n/a
493.898	0.0	keypress	4	493898	n/a	n/a	n/a	n/a	n/a	n/a
495.664	0.0	nontarget	5	495664	ü	0	47.0	n/a	n/a	2
497.931	0.0	nontarget	5	497931	o	0	33.0	n/a	n/a	2
500.164	0.0	target	6	500164	y	1	31.0	1	0.4100669	2
500.514	0.5	BAD keypress	2	500514	n/a	n/a	n/a	n/a	n/a	n/a
500.764	0.0	keypress	4	500764	n/a	n/a	n/a	n/a	n/a	n/a
502.247	0.0	nontarget	5	502247	n	0	30.0	n/a	n/a	2
504.464	0.0	nontarget	5	504464	ä	0	30.0	n/a	n/a	2
506.797	0.0	nontarget	5	506797	i	0	37.0	n/a	n/a	2
508.98	0.0	nontarget	5	508980	l	0	28.0	n/a	n/a	2
511.247	0.0	nontarget	5	511247	j	0	33.0	n/a	n/a	2
513.297	0.0	nontarget	5	513297	ö	0	20.0	n/a	n/a	2
515.513	0.0	nontarget	5	515513	g	0	30.0	n/a	n/a	2
517.563	0.0	nontarget	5	517563	x	0	20.0	n/a	n/a	2
519.78	0.0	nontarget	5	519780	n	0	30.0	n/a	n/a	2
522.23	0.0	nontarget	5	522230	r	0	44.0	n/a	n/a	2
524.696	0.0	nontarget	5	524696	v	0	45.0	n/a	n/a	2
525.796	12.16599999999994	BAD_break	3	525796	n/a	n/a	n/a	n/a	n/a	n/a
538.462	0.0	nontarget	5	538462	i	0	34.0	n/a	n/a	3
540.412	0.0	target	6	540412	j	1	14.0	1	0.4790953	3
540.762	0.5	BAD keypress	2	540762	n/a	n/a	n/a	n/a	n/a	n/a
541.012	0.0	keypress	4	541012	n/a	n/a	n/a	n/a	n/a	n/a
542.379	0.0	target	6	542379	t	1	23.0	1	0.4325674	3
542.696	0.5	BAD keypress	2	542696	n/a	n/a	n/a	n/a	n/a	n/a
542.946	0.0	keypress	4	542946	n/a	n/a	n/a	n/a	n/a	n/a
544.429	0.0	nontarget	5	544429	v	0	30.0	n/a	n/a	3
546.462	0.0	target	6	546462	l	1	19.0	1	0.4130198	3
546.745	0.5	BAD keypress	2	546745	n/a	n/a	n/a	n/a	n/a	n/a
546.995	0.0	keypress	4	546995	n/a	n/a	n/a	n/a	n/a	n/a
548.595	0.0	nontarget	5	548595	m	0	37.0	n/a	n/a	3
550.845	0.0	nontarget	5	550845	h	0	32.0	n/a	n/a	3
553.378	0.0	nontarget	5	553378	d	0	49.0	n/a	n/a	3
555.795	0.0	target	6	555795	z	1	42.0	1	0.3594374	3
556.062	0.5	BAD keypress	2	556062	n/a	n/a	n/a	n/a	n/a	n/a
556.312	0.0	keypress	4	556312	n/a	n/a	n/a	n/a	n/a	n/a
557.845	0.0	nontarget	5	557845	k	0	33.0	n/a	n/a	3
559.961	0.0	nontarget	5	559961	q	0	24.0	n/a	n/a	3
562.161	0.0	nontarget	5	562161	e	0	29.0	n/a	n/a	3
564.511	0.0	target	6	564511	r	1	38.0	1	0.4106613	3
564.845	0.5	BAD keypress	2	564845	n/a	n/a	n/a	n/a	n/a	n/a
565.095	0.0	keypress	4	565095	n/a	n/a	n/a	n/a	n/a	n/a
566.778	0.0	nontarget	5	566778	ö	0	42.0	n/a	n/a	3
569.244	0.0	nontarget	5	569244	y	0	45.0	n/a	n/a	3
571.394	0.0	nontarget	5	571394	g	0	26.0	n/a	n/a	3
573.694	0.0	target	6	573694	z	1	35.0	1	0.3470533	3
573.961	0.5	BAD keypress	2	573961	n/a	n/a	n/a	n/a	n/a	n/a
574.211	0.0	keypress	4	574211	n/a	n/a	n/a	n/a	n/a	n/a
575.827	0.0	nontarget	5	575827	r	0	38.0	n/a	n/a	3
578.077	0.0	target	6	578077	k	1	32.0	1	0.3636345	3
578.327	0.5	BAD keypress	2	578327	n/a	n/a	n/a	n/a	n/a	n/a
578.577	0.0	keypress	4	578577	n/a	n/a	n/a	n/a	n/a	n/a
580.177	0.0	nontarget	5	580177	g	0	37.0	n/a	n/a	3
582.444	0.0	nontarget	5	582444	d	0	33.0	n/a	n/a	3
584.727	0.0	nontarget	5	584727	ö	0	34.0	n/a	n/a	3
586.877	0.0	nontarget	5	586877	o	0	26.0	n/a	n/a	3
589.327	0.0	nontarget	5	589327	x	0	44.0	n/a	n/a	3
591.593	0.0	nontarget	5	591593	b	0	33.0	n/a	n/a	3
593.693	0.0	target	6	593693	n	1	23.0	1	0.4105817	3
594.01	0.5	BAD keypress	2	594010	n/a	n/a	n/a	n/a	n/a	n/a
594.26	0.0	keypress	4	594260	n/a	n/a	n/a	n/a	n/a	n/a
595.793	0.0	nontarget	5	595793	ä	0	33.0	n/a	n/a	3
597.91	0.0	nontarget	5	597910	l	0	24.0	n/a	n/a	3
599.976	0.0	nontarget	5	599976	i	0	21.0	n/a	n/a	3
602.493	0.0	nontarget	5	602493	j	0	48.0	n/a	n/a	3
604.493	0.0	nontarget	5	604493	c	0	17.0	n/a	n/a	3
607.026	0.0	target	6	607026	m	1	49.0	1	0.3889817	3
607.326	0.5	BAD keypress	2	607326	n/a	n/a	n/a	n/a	n/a	n/a
607.576	0.0	keypress	4	607576	n/a	n/a	n/a	n/a	n/a	n/a
609.043	0.0	nontarget	5	609043	u	0	29.0	n/a	n/a	3
611.409	0.0	nontarget	5	611409	l	0	39.0	n/a	n/a	3
613.809	0.0	nontarget	5	613809	t	0	41.0	n/a	n/a	3
616.076	0.0	target	6	616076	s	1	33.0	1	0.3786906	3
616.359	0.5	BAD keypress	2	616359	n/a	n/a	n/a	n/a	n/a	n/a
616.609	0.0	keypress	4	616609	n/a	n/a	n/a	n/a	n/a	n/a
618.309	0.0	nontarget	5	618309	f	0	42.0	n/a	n/a	3
620.492	0.0	nontarget	5	620492	x	0	28.0	n/a	n/a	3
622.742	0.0	nontarget	5	622742	a	0	32.0	n/a	n/a	3
624.858	0.0	nontarget	5	624858	z	0	24.0	n/a	n/a	3
627.042	0.0	nontarget	5	627042	f	0	28.0	n/a	n/a	3
629.058	0.0	nontarget	5	629058	c	0	18.0	n/a	n/a	3
631.258	0.0	nontarget	5	631258	a	0	29.0	n/a	n/a	3
633.358	0.0	nontarget	5	633358	d	0	23.0	n/a	n/a	3
635.358	0.0	nontarget	5	635358	j	0	17.0	n/a	n/a	3
637.591	0.0	target	6	637591	v	1	31.0	1	0.4295603	3
637.925	0.5	BAD keypress	2	637925	n/a	n/a	n/a	n/a	n/a	n/a
638.175	0.0	keypress	4	638175	n/a	n/a	n/a	n/a	n/a	n/a
639.541	0.0	nontarget	5	639541	x	0	23.0	n/a	n/a	3
642.074	0.0	nontarget	5	642074	m	0	49.0	n/a	n/a	3
644.291	0.0	target	6	644291	ä	1	30.0	1	0.4494465	3
644.641	0.5	BAD keypress	2	644641	n/a	n/a	n/a	n/a	n/a	n/a
644.891	0.0	keypress	4	644891	n/a	n/a	n/a	n/a	n/a	n/a
646.641	0.0	target	6	646641	v	1	46.0	1	0.5634106	3
647.091	0.5	BAD keypress	2	647091	n/a	n/a	n/a	n/a	n/a	n/a
647.341	0.0	keypress	4	647341	n/a	n/a	n/a	n/a	n/a	n/a
648.674	0.0	target	6	648674	h	1	20.0	1	0.3859429	3
648.974	0.5	BAD keypress	2	648974	n/a	n/a	n/a	n/a	n/a	n/a
649.224	0.0	keypress	4	649224	n/a	n/a	n/a	n/a	n/a	n/a
650.957	0.0	nontarget	5	650957	i	0	45.0	n/a	n/a	3
653.374	0.0	nontarget	5	653374	f	0	42.0	n/a	n/a	3
655.874	0.0	nontarget	5	655874	ü	0	47.0	n/a	n/a	3
657.99	0.0	nontarget	5	657990	a	0	24.0	n/a	n/a	3
660.157	0.0	nontarget	5	660157	q	0	27.0	n/a	n/a	3
662.423	0.0	nontarget	5	662423	s	0	33.0	n/a	n/a	3
664.773	0.0	nontarget	5	664773	f	0	38.0	n/a	n/a	3
666.957	0.0	nontarget	5	666957	e	0	28.0	n/a	n/a	3
669.123	0.0	nontarget	5	669123	t	0	27.0	n/a	n/a	3
671.623	0.0	nontarget	5	671623	l	0	47.0	n/a	n/a	3
673.906	0.0	nontarget	5	673906	n	0	34.0	n/a	n/a	3
675.923	0.0	nontarget	5	675923	p	0	18.0	n/a	n/a	3
678.473	0.0	nontarget	5	678473	d	0	50.0	n/a	n/a	3
680.689	0.0	nontarget	5	680689	w	0	30.0	n/a	n/a	3
682.923	0.0	nontarget	5	682923	s	0	31.0	n/a	n/a	3
684.023	12.499000000000024	BAD_break	3	684023	n/a	n/a	n/a	n/a	n/a	n/a
697.022	0.0	nontarget	5	697022	ß	0	24.0	n/a	n/a	4
699.389	0.0	nontarget	5	699389	v	0	39.0	n/a	n/a	4
701.588	0.0	nontarget	5	701588	x	0	29.0	n/a	n/a	4
703.638	0.0	nontarget	5	703638	l	0	20.0	n/a	n/a	4
705.705	0.0	nontarget	5	705705	ü	0	21.0	n/a	n/a	4
707.688	0.0	nontarget	5	707688	w	0	16.0	n/a	n/a	4
709.655	0.0	nontarget	5	709655	x	0	15.0	n/a	n/a	4
712.088	0.0	nontarget	5	712088	b	0	43.0	n/a	n/a	4
714.071	0.0	nontarget	5	714071	z	0	16.0	n/a	n/a	4
716.504	0.0	target	6	716504	v	1	43.0	1	0.4070712	4
716.821	0.5	BAD keypress	2	716821	n/a	n/a	n/a	n/a	n/a	n/a
717.071	0.0	keypress	4	717071	n/a	n/a	n/a	n/a	n/a	n/a
718.354	0.0	nontarget	5	718354	a	0	18.0	n/a	n/a	4
720.888	0.0	nontarget	5	720888	v	0	49.0	n/a	n/a	4
723.371	0.0	target	6	723371	ü	1	46.0	1	0.3881732	4
723.671	0.5	BAD keypress	2	723671	n/a	n/a	n/a	n/a	n/a	n/a
723.921	0.0	keypress	4	723921	n/a	n/a	n/a	n/a	n/a	n/a
725.254	0.0	nontarget	5	725254	g	0	20.0	n/a	n/a	4
727.687	0.0	nontarget	5	727687	h	0	43.0	n/a	n/a	4
730.22	0.0	nontarget	5	730220	v	0	49.0	n/a	n/a	4
732.737	0.0	nontarget	5	732737	p	0	48.0	n/a	n/a	4
735.037	0.0	nontarget	5	735037	ä	0	35.0	n/a	n/a	4
737.02	0.0	nontarget	5	737020	j	0	16.0	n/a	n/a	4
739.387	0.0	nontarget	5	739387	z	0	39.0	n/a	n/a	4
741.387	0.0	target	6	741387	t	1	17.0	1	0.4191264	4
741.72	0.5	BAD keypress	2	741720	n/a	n/a	n/a	n/a	n/a	n/a
741.97	0.0	keypress	4	741970	n/a	n/a	n/a	n/a	n/a	n/a
743.387	0.0	nontarget	5	743387	ö	0	26.0	n/a	n/a	4
745.62	0.0	nontarget	5	745620	m	0	31.0	n/a	n/a	4
747.72	0.0	nontarget	5	747720	t	0	23.0	n/a	n/a	4
749.97	0.0	nontarget	5	749970	p	0	32.0	n/a	n/a	4
752.053	0.0	target	6	752053	r	1	22.0	1	0.4083022	4
752.37	0.5	BAD keypress	2	752370	n/a	n/a	n/a	n/a	n/a	n/a
752.62	0.0	keypress	4	752620	n/a	n/a	n/a	n/a	n/a	n/a
754.186	0.0	nontarget	5	754186	r	0	34.0	n/a	n/a	4
756.286	0.0	nontarget	5	756286	n	0	23.0	n/a	n/a	4
758.269	0.0	nontarget	5	758269	ü	0	16.0	n/a	n/a	4
760.586	0.0	nontarget	5	760586	y	0	36.0	n/a	n/a	4
762.852	0.0	nontarget	5	762852	h	0	33.0	n/a	n/a	4
765.236	0.0	nontarget	5	765236	t	0	40.0	n/a	n/a	4
767.386	0.0	nontarget	5	767386	p	0	26.0	n/a	n/a	4
769.902	0.0	nontarget	5	769902	ß	0	48.0	n/a	n/a	4
772.035	0.0	nontarget	5	772035	y	0	25.0	n/a	n/a	4
774.085	0.0	nontarget	5	774085	o	0	20.0	n/a	n/a	4
776.368	0.0	target	6	776368	u	1	34.0	1	0.4750656	4
776.785	0.5	BAD keypress	2	776785	n/a	n/a	n/a	n/a	n/a	n/a
777.035	0.0	keypress	4	777035	n/a	n/a	n/a	n/a	n/a	n/a
778.535	0.0	nontarget	5	778535	x	0	31.0	n/a	n/a	4
781.002	0.0	target	6	781002	f	1	45.0	1	0.4175525	4
781.335	0.5	BAD keypress	2	781335	n/a	n/a	n/a	n/a	n/a	n/a
781.585	0.0	keypress	4	781585	n/a	n/a	n/a	n/a	n/a	n/a
783.401	0.0	nontarget	5	783401	g	0	50.0	n/a	n/a	4
785.718	0.0	nontarget	5	785718	z	0	36.0	n/a	n/a	4
787.785	0.0	target	6	787785	s	1	21.0	1	0.4659372	4
788.168	0.5	BAD keypress	2	788168	n/a	n/a	n/a	n/a	n/a	n/a
788.418	0.0	keypress	4	788418	n/a	n/a	n/a	n/a	n/a	n/a
789.985	0.0	nontarget	5	789985	u	0	35.0	n/a	n/a	4
792.134	0.0	nontarget	5	792134	ä	0	26.0	n/a	n/a	4
794.101	0.0	nontarget	5	794101	h	0	15.0	n/a	n/a	4
796.218	0.0	target	6	796218	v	1	24.0	1	0.4805297	4
796.651	0.5	BAD keypress	2	796651	n/a	n/a	n/a	n/a	n/a	n/a
796.901	0.0	keypress	4	796901	n/a	n/a	n/a	n/a	n/a	n/a
798.251	0.0	nontarget	5	798251	g	0	22.0	n/a	n/a	4
800.767	0.0	nontarget	5	800767	ö	0	48.0	n/a	n/a	4
802.934	0.0	nontarget	5	802934	c	0	27.0	n/a	n/a	4
804.917	0.0	target	6	804917	c	1	16.0	1	0.4364023	4
805.251	0.5	BAD keypress	2	805251	n/a	n/a	n/a	n/a	n/a	n/a
805.501	0.0	keypress	4	805501	n/a	n/a	n/a	n/a	n/a	n/a
806.8	0.0	target	6	806800	x	1	19.0	1	0.4570198	4
807.167	0.5	BAD keypress	2	807167	n/a	n/a	n/a	n/a	n/a	n/a
807.417	0.0	keypress	4	807417	n/a	n/a	n/a	n/a	n/a	n/a
809.0	0.0	nontarget	5	809000	d	0	36.0	n/a	n/a	4
810.984	0.0	target	6	810984	g	1	16.0	1	0.3853924	4
811.267	0.5	BAD keypress	2	811267	n/a	n/a	n/a	n/a	n/a	n/a
811.517	0.0	keypress	4	811517	n/a	n/a	n/a	n/a	n/a	n/a
813.333	0.0	nontarget	5	813333	r	0	50.0	n/a	n/a	4
815.367	0.0	nontarget	5	815367	h	0	19.0	n/a	n/a	4
817.85	0.0	nontarget	5	817850	ä	0	46.0	n/a	n/a	4
820.3	0.0	nontarget	5	820300	q	0	44.0	n/a	n/a	4
822.316	0.0	nontarget	5	822316	ü	0	18.0	n/a	n/a	4
824.55	0.0	nontarget	5	824550	v	0	31.0	n/a	n/a	4
827.016	0.0	nontarget	5	827016	m	0	45.0	n/a	n/a	4
829.299	0.0	target	6	829299	w	1	34.0	1	0.4364341	4
829.65	0.5	BAD keypress	2	829650	n/a	n/a	n/a	n/a	n/a	n/a
829.9	0.0	keypress	4	829900	n/a	n/a	n/a	n/a	n/a	n/a
831.533	0.0	nontarget	5	831533	t	0	39.0	n/a	n/a	4
833.666	0.0	nontarget	5	833666	g	0	25.0	n/a	n/a	4
835.766	0.0	nontarget	5	835766	a	0	23.0	n/a	n/a	4
837.949	0.0	nontarget	5	837949	c	0	28.0	n/a	n/a	4
840.182	0.0	nontarget	5	840182	f	0	31.0	n/a	n/a	4
841.282	12.099999999999907	BAD_break	3	841282	n/a	n/a	n/a	n/a	n/a	n/a
853.882	0.0	nontarget	5	853882	w	0	46.0	n/a	n/a	5
855.882	0.0	nontarget	5	855882	u	0	17.0	n/a	n/a	5
858.332	0.0	nontarget	5	858332	i	0	44.0	n/a	n/a	5
860.815	0.0	nontarget	5	860815	s	0	46.0	n/a	n/a	5
863.265	0.0	nontarget	5	863265	j	0	44.0	n/a	n/a	5
865.481	0.0	nontarget	5	865481	u	0	30.0	n/a	n/a	5
867.614	0.0	target	6	867614	j	1	25.0	1	0.4548355	5
868.015	0.5	BAD keypress	2	868015	n/a	n/a	n/a	n/a	n/a	n/a
868.265	0.0	keypress	4	868265	n/a	n/a	n/a	n/a	n/a	n/a
869.881	0.0	target	6	869881	p	1	38.0	1	0.4921706	5
870.281	0.5	BAD keypress	2	870281	n/a	n/a	n/a	n/a	n/a	n/a
870.531	0.0	keypress	4	870531	n/a	n/a	n/a	n/a	n/a	n/a
872.131	0.0	nontarget	5	872131	p	0	37.0	n/a	n/a	5
874.647	0.0	nontarget	5	874647	c	0	48.0	n/a	n/a	5
876.981	0.0	nontarget	5	876981	z	0	37.0	n/a	n/a	5
879.181	0.0	nontarget	5	879181	s	0	29.0	n/a	n/a	5
881.331	0.0	nontarget	5	881331	w	0	26.0	n/a	n/a	5
883.564	0.0	nontarget	5	883564	u	0	31.0	n/a	n/a	5
885.864	0.0	nontarget	5	885864	ä	0	35.0	n/a	n/a	5
888.297	0.0	nontarget	5	888297	ß	0	43.0	n/a	n/a	5
890.28	0.0	nontarget	5	890280	m	0	16.0	n/a	n/a	5
892.797	0.0	nontarget	5	892797	ü	0	48.0	n/a	n/a	5
894.913	0.0	nontarget	5	894913	n	0	24.0	n/a	n/a	5
896.98	0.0	nontarget	5	896980	a	0	21.0	n/a	n/a	5
899.096	0.0	nontarget	5	899096	y	0	24.0	n/a	n/a	5
901.63	0.0	target	6	901630	u	1	49.0	1	0.4213708	5
901.98	0.5	BAD keypress	2	901980	n/a	n/a	n/a	n/a	n/a	n/a
902.23	0.0	keypress	4	902230	n/a	n/a	n/a	n/a	n/a	n/a
903.68	0.0	nontarget	5	903680	j	0	28.0	n/a	n/a	5
905.896	0.0	nontarget	5	905896	x	0	30.0	n/a	n/a	5
908.179	0.0	target	6	908179	q	1	34.0	1	0.4632319	5
908.546	0.5	BAD keypress	2	908546	n/a	n/a	n/a	n/a	n/a	n/a
908.796	0.0	keypress	4	908796	n/a	n/a	n/a	n/a	n/a	n/a
910.396	0.0	nontarget	5	910396	u	0	37.0	n/a	n/a	5
912.379	0.0	nontarget	5	912379	j	0	16.0	n/a	n/a	5
914.746	0.0	nontarget	5	914746	k	0	39.0	n/a	n/a	5
916.712	0.0	nontarget	5	916712	l	0	15.0	n/a	n/a	5
918.846	0.0	target	6	918846	f	1	25.0	1	0.4202426	5
919.129	0.5	BAD keypress	2	919129	n/a	n/a	n/a	n/a	n/a	n/a
919.379	0.0	keypress	4	919379	n/a	n/a	n/a	n/a	n/a	n/a
921.012	0.0	nontarget	5	921012	h	0	39.0	n/a	n/a	5
923.412	0.0	nontarget	5	923412	v	0	41.0	n/a	n/a	5
925.895	0.0	nontarget	5	925895	l	0	46.0	n/a	n/a	5
927.945	0.0	nontarget	5	927945	s	0	20.0	n/a	n/a	5
930.362	0.0	nontarget	5	930362	a	0	42.0	n/a	n/a	5
932.412	0.0	nontarget	5	932412	u	0	20.0	n/a	n/a	5
934.578	0.0	nontarget	5	934578	b	0	27.0	n/a	n/a	5
937.028	0.0	nontarget	5	937028	ü	0	44.0	n/a	n/a	5
939.428	0.0	nontarget	5	939428	m	0	41.0	n/a	n/a	5
941.895	0.0	nontarget	5	941895	t	0	45.0	n/a	n/a	5
944.094	0.0	nontarget	5	944094	z	0	29.0	n/a	n/a	5
946.194	0.0	nontarget	5	946194	o	0	23.0	n/a	n/a	5
948.261	0.0	target	6	948261	y	1	21.0	1	0.4270215	5
948.611	0.5	BAD keypress	2	948611	n/a	n/a	n/a	n/a	n/a	n/a
948.861	0.0	keypress	4	948861	n/a	n/a	n/a	n/a	n/a	n/a
950.577	0.0	nontarget	5	950577	ö	0	44.0	n/a	n/a	5
952.661	0.0	nontarget	5	952661	y	0	22.0	n/a	n/a	5
955.011	0.0	nontarget	5	955011	s	0	38.0	n/a	n/a	5
957.311	0.0	nontarget	5	957311	m	0	35.0	n/a	n/a	5
959.31	0.0	nontarget	5	959310	v	0	17.0	n/a	n/a	5
961.327	0.0	nontarget	5	961327	ö	0	18.0	n/a	n/a	5
963.41	0.0	nontarget	5	963410	ä	0	22.0	n/a	n/a	5
965.71	0.0	target	6	965710	e	1	35.0	1	0.3685116	5
965.994	0.5	BAD keypress	2	965994	n/a	n/a	n/a	n/a	n/a	n/a
966.244	0.0	keypress	4	966244	n/a	n/a	n/a	n/a	n/a	n/a
967.96	0.0	nontarget	5	967960	u	0	44.0	n/a	n/a	5
970.227	0.0	target	6	970227	o	1	33.0	1	0.3957372	5
970.543	0.5	BAD keypress	2	970543	n/a	n/a	n/a	n/a	n/a	n/a
970.793	0.0	keypress	4	970793	n/a	n/a	n/a	n/a	n/a	n/a
972.593	0.0	nontarget	5	972593	w	0	49.0	n/a	n/a	5
974.576	0.0	target	6	974576	ü	1	16.0	1	0.445671	5
974.927	0.5	BAD keypress	2	974927	n/a	n/a	n/a	n/a	n/a	n/a
975.177	0.0	keypress	4	975177	n/a	n/a	n/a	n/a	n/a	n/a
976.543	0.0	nontarget	5	976543	ä	0	23.0	n/a	n/a	5
979.076	0.0	nontarget	5	979076	g	0	49.0	n/a	n/a	5
981.393	0.0	nontarget	5	981393	a	0	36.0	n/a	n/a	5
983.409	0.0	nontarget	5	983409	d	0	18.0	n/a	n/a	5
985.426	0.0	target	6	985426	r	1	18.0	1	0.3953884	5
985.726	0.5	BAD keypress	2	985726	n/a	n/a	n/a	n/a	n/a	n/a
985.976	0.0	keypress	4	985976	n/a	n/a	n/a	n/a	n/a	n/a
987.293	0.0	target	6	987293	h	1	20.0	1	0.4166633	5
987.626	0.5	BAD keypress	2	987626	n/a	n/a	n/a	n/a	n/a	n/a
987.876	0.0	keypress	4	987876	n/a	n/a	n/a	n/a	n/a	n/a
989.192	0.0	nontarget	5	989192	r	0	20.0	n/a	n/a	5
991.292	0.0	nontarget	5	991292	s	0	23.0	n/a	n/a	5
993.559	0.0	nontarget	5	993559	g	0	33.0	n/a	n/a	5
995.792	0.0	nontarget	5	995792	a	0	31.0	n/a	n/a	5
998.075	0.0	target	6	998075	e	1	34.0	1	0.3690605	5
998.359	0.5	BAD keypress	2	998359	n/a	n/a	n/a	n/a	n/a	n/a
998.609	0.0	keypress	4	998609	n/a	n/a	n/a	n/a	n/a	n/a
999.709	10.898999999999887	BAD_break	3	999709	n/a	n/a	n/a	n/a	n/a	n/a
1011.108	0.0	nontarget	5	1011108	s	0	31.0	n/a	n/a	6
1013.075	0.0	nontarget	5	1013075	b	0	15.0	n/a	n/a	6
1015.075	0.0	nontarget	5	1015075	z	0	17.0	n/a	n/a	6
1017.158	0.0	nontarget	5	1017158	j	0	22.0	n/a	n/a	6
1019.541	0.0	target	6	1019541	i	1	40.0	1	0.421923	6
1019.891	0.5	BAD keypress	2	1019891	n/a	n/a	n/a	n/a	n/a	n/a
1020.141	0.0	keypress	4	1020141	n/a	n/a	n/a	n/a	n/a	n/a
1021.608	0.0	nontarget	5	1021608	s	0	29.0	n/a	n/a	6
1023.874	0.0	nontarget	5	1023874	o	0	33.0	n/a	n/a	6
1025.858	0.0	nontarget	5	1025858	ä	0	16.0	n/a	n/a	6
1027.807	0.0	target	6	1027807	e	1	14.0	1	0.4270872	6
1028.158	0.5	BAD keypress	2	1028158	n/a	n/a	n/a	n/a	n/a	n/a
1028.408	0.0	keypress	4	1028408	n/a	n/a	n/a	n/a	n/a	n/a
1030.007	0.0	target	6	1030007	b	1	37.0	1	0.451057	6
1030.357	0.5	BAD keypress	2	1030357	n/a	n/a	n/a	n/a	n/a	n/a
1030.607	0.0	keypress	4	1030607	n/a	n/a	n/a	n/a	n/a	n/a
1032.007	0.0	nontarget	5	1032007	k	0	25.0	n/a	n/a	6
1034.174	0.0	nontarget	5	1034174	m	0	27.0	n/a	n/a	6
1036.44	0.0	nontarget	5	1036440	y	0	33.0	n/a	n/a	6
1038.474	0.0	nontarget	5	1038474	ü	0	19.0	n/a	n/a	6
1040.89	0.0	nontarget	5	1040890	f	0	42.0	n/a	n/a	6
1042.957	0.0	nontarget	5	1042957	v	0	21.0	n/a	n/a	6
1045.057	0.0	nontarget	5	1045057	h	0	23.0	n/a	n/a	6
1047.023	0.0	nontarget	5	1047023	e	0	15.0	n/a	n/a	6
1049.34	0.0	nontarget	5	1049340	l	0	36.0	n/a	n/a	6
1051.556	0.0	nontarget	5	1051556	s	0	30.0	n/a	n/a	6
1053.923	0.0	nontarget	5	1053923	ü	0	39.0	n/a	n/a	6
1056.206	0.0	nontarget	5	1056206	w	0	34.0	n/a	n/a	6
1058.323	0.0	nontarget	5	1058323	z	0	24.0	n/a	n/a	6
1060.689	0.0	nontarget	5	1060689	l	0	39.0	n/a	n/a	6
1063.123	0.0	nontarget	5	1063123	ä	0	43.0	n/a	n/a	6
1065.622	0.0	nontarget	5	1065622	s	0	47.0	n/a	n/a	6
1068.106	0.0	nontarget	5	1068106	r	0	46.0	n/a	n/a	6
1070.589	0.0	nontarget	5	1070589	n	0	46.0	n/a	n/a	6
1072.722	0.0	nontarget	5	1072722	e	0	25.0	n/a	n/a	6
1074.739	0.0	nontarget	5	1074739	h	0	18.0	n/a	n/a	6
1077.239	0.0	target	6	1077239	m	1	47.0	1	0.4007291	6
1077.555	0.5	BAD keypress	2	1077555	n/a	n/a	n/a	n/a	n/a	n/a
1077.805	0.0	keypress	4	1077805	n/a	n/a	n/a	n/a	n/a	n/a
1079.122	0.0	nontarget	5	1079122	m	0	20.0	n/a	n/a	6
1081.372	0.0	nontarget	5	1081372	g	0	32.0	n/a	n/a	6
1083.805	0.0	nontarget	5	1083805	l	0	43.0	n/a	n/a	6
1086.155	0.0	nontarget	5	1086155	h	0	38.0	n/a	n/a	6
1088.238	0.0	nontarget	5	1088238	f	0	22.0	n/a	n/a	6
1090.255	0.0	nontarget	5	1090255	ß	0	18.0	n/a	n/a	6
1092.721	0.0	nontarget	5	1092721	ü	0	45.0	n/a	n/a	6
1094.804	0.0	nontarget	5	1094804	w	0	22.0	n/a	n/a	6
1096.988	0.0	target	6	1096988	d	1	28.0	1	0.4101267	6
1097.305	0.5	BAD keypress	2	1097305	n/a	n/a	n/a	n/a	n/a	n/a
1097.555	0.0	keypress	4	1097555	n/a	n/a	n/a	n/a	n/a	n/a
1098.971	0.0	target	6	1098971	h	1	25.0	1	0.5067571	6
1099.388	0.5	BAD keypress	2	1099388	n/a	n/a	n/a	n/a	n/a	n/a
1099.638	0.0	keypress	4	1099638	n/a	n/a	n/a	n/a	n/a	n/a
1100.871	0.0	nontarget	5	1100871	r	0	15.0	n/a	n/a	6
1103.204	0.0	nontarget	5	1103204	p	0	37.0	n/a	n/a	6
1105.454	0.0	nontarget	5	1105454	c	0	32.0	n/a	n/a	6
1107.754	0.0	target	6	1107754	w	1	35.0	1	0.411163	6
1108.087	0.5	BAD keypress	2	1108087	n/a	n/a	n/a	n/a	n/a	n/a
1108.337	0.0	keypress	4	1108337	n/a	n/a	n/a	n/a	n/a	n/a
1110.054	0.0	target	6	1110054	z	1	44.0	1	0.3990531	6
1110.354	0.5	BAD keypress	2	1110354	n/a	n/a	n/a	n/a	n/a	n/a
1110.604	0.0	keypress	4	1110604	n/a	n/a	n/a	n/a	n/a	n/a
1112.17	0.0	nontarget	5	1112170	y	0	35.0	n/a	n/a	6
1114.637	0.0	nontarget	5	1114637	ä	0	45.0	n/a	n/a	6
1117.037	0.0	target	6	1117037	m	1	41.0	1	0.3755751	6
1117.337	0.5	BAD keypress	2	1117337	n/a	n/a	n/a	n/a	n/a	n/a
1117.587	0.0	keypress	4	1117587	n/a	n/a	n/a	n/a	n/a	n/a
1119.32	0.0	nontarget	5	1119320	l	0	45.0	n/a	n/a	6
1121.42	0.0	nontarget	5	1121420	h	0	23.0	n/a	n/a	6
1123.787	0.0	nontarget	5	1123787	ö	0	39.0	n/a	n/a	6
1125.77	0.0	nontarget	5	1125770	s	0	16.0	n/a	n/a	6
1128.286	0.0	nontarget	5	1128286	m	0	48.0	n/a	n/a	6
1130.303	0.0	nontarget	5	1130303	w	0	18.0	n/a	n/a	6
1132.47	0.0	nontarget	5	1132470	v	0	27.0	n/a	n/a	6
1134.536	0.0	target	6	1134536	k	1	21.0	1	0.3952289	6
1134.87	0.5	BAD keypress	2	1134870	n/a	n/a	n/a	n/a	n/a	n/a
1135.12	0.0	keypress	4	1135120	n/a	n/a	n/a	n/a	n/a	n/a
1136.719	0.0	nontarget	5	1136719	i	0	37.0	n/a	n/a	6
1139.186	0.0	nontarget	5	1139186	p	0	45.0	n/a	n/a	6
1141.169	0.0	nontarget	5	1141169	k	0	16.0	n/a	n/a	6
1143.669	0.0	nontarget	5	1143669	f	0	47.0	n/a	n/a	6
1145.836	0.0	target	6	1145836	k	1	27.0	1	0.3908748	6
1146.152	0.5	BAD keypress	2	1146152	n/a	n/a	n/a	n/a	n/a	n/a
1146.402	0.0	keypress	4	1146402	n/a	n/a	n/a	n/a	n/a	n/a
1147.619	0.0	target	6	1147619	i	1	14.0	1	0.4475201	6
1147.969	0.5	BAD keypress	2	1147969	n/a	n/a	n/a	n/a	n/a	n/a
1148.219	0.0	keypress	4	1148219	n/a	n/a	n/a	n/a	n/a	n/a
1149.502	0.0	nontarget	5	1149502	g	0	18.0	n/a	n/a	6
1152.052	0.0	target	6	1152052	p	1	50.0	1	0.4140672	6
1152.385	0.5	BAD keypress	2	1152385	n/a	n/a	n/a	n/a	n/a	n/a
1152.635	0.0	keypress	4	1152635	n/a	n/a	n/a	n/a	n/a	n/a
1154.052	0.0	nontarget	5	1154052	ß	0	26.0	n/a	n/a	6
1155.152	14.416000000000167	BAD_break	3	1155152	n/a	n/a	n/a	n/a	n/a	n/a
1170.068	0.0	target	6	1170068	s	1	14.0	1	0.4449774	7
1170.401	0.5	BAD keypress	2	1170401	n/a	n/a	n/a	n/a	n/a	n/a
1170.651	0.0	keypress	4	1170651	n/a	n/a	n/a	n/a	n/a	n/a
1172.018	0.0	target	6	1172018	l	1	22.0	1	0.3829456	7
1172.301	0.5	BAD keypress	2	1172301	n/a	n/a	n/a	n/a	n/a	n/a
1172.551	0.0	keypress	4	1172551	n/a	n/a	n/a	n/a	n/a	n/a
1174.034	0.0	nontarget	5	1174034	x	0	29.0	n/a	n/a	7
1176.551	0.0	nontarget	5	1176551	g	0	48.0	n/a	n/a	7
1178.718	0.0	nontarget	5	1178718	m	0	27.0	n/a	n/a	7
1181.217	0.0	nontarget	5	1181217	j	0	47.0	n/a	n/a	7
1183.284	0.0	target	6	1183284	t	1	21.0	1	0.3640224	7
1183.584	0.5	BAD keypress	2	1183584	n/a	n/a	n/a	n/a	n/a	n/a
1183.834	0.0	keypress	4	1183834	n/a	n/a	n/a	n/a	n/a	n/a
1185.434	0.0	nontarget	5	1185434	a	0	37.0	n/a	n/a	7
1187.85	0.0	nontarget	5	1187850	v	0	42.0	n/a	n/a	7
1190.25	0.0	nontarget	5	1190250	m	0	41.0	n/a	n/a	7
1192.434	0.0	target	6	1192434	r	1	28.0	1	0.3818136	7
1192.734	0.5	BAD keypress	2	1192734	n/a	n/a	n/a	n/a	n/a	n/a
1192.984	0.0	keypress	4	1192984	n/a	n/a	n/a	n/a	n/a	n/a
1194.417	0.0	target	6	1194417	n	1	26.0	1	0.3824075	7
1194.7	0.5	BAD keypress	2	1194700	n/a	n/a	n/a	n/a	n/a	n/a
1194.95	0.0	keypress	4	1194950	n/a	n/a	n/a	n/a	n/a	n/a
1196.667	0.0	nontarget	5	1196667	b	0	44.0	n/a	n/a	7
1198.733	0.0	nontarget	5	1198733	h	0	21.0	n/a	n/a	7
1201.0	0.0	target	6	1201000	s	1	33.0	1	0.3429408	7
1201.267	0.5	BAD keypress	2	1201267	n/a	n/a	n/a	n/a	n/a	n/a
1201.517	0.0	keypress	4	1201517	n/a	n/a	n/a	n/a	n/a	n/a
1203.266	0.0	target	6	1203266	b	1	46.0	1	0.3801911	7
1203.533	0.5	BAD keypress	2	1203533	n/a	n/a	n/a	n/a	n/a	n/a
1203.783	0.0	keypress	4	1203783	n/a	n/a	n/a	n/a	n/a	n/a
1205.283	0.0	nontarget	5	1205283	j	0	31.0	n/a	n/a	7
1207.7	0.0	nontarget	5	1207700	z	0	42.0	n/a	n/a	7
1210.116	0.0	nontarget	5	1210116	h	0	42.0	n/a	n/a	7
1212.666	0.0	target	6	1212666	g	1	50.0	1	0.4199744	7
1212.983	0.5	BAD keypress	2	1212983	n/a	n/a	n/a	n/a	n/a	n/a
1213.233	0.0	keypress	4	1213233	n/a	n/a	n/a	n/a	n/a	n/a
1214.683	0.0	nontarget	5	1214683	d	0	28.0	n/a	n/a	7
1217.166	0.0	nontarget	5	1217166	t	0	46.0	n/a	n/a	7
1219.666	0.0	nontarget	5	1219666	a	0	47.0	n/a	n/a	7
1222.199	0.0	nontarget	5	1222199	i	0	49.0	n/a	n/a	7
1224.482	0.0	nontarget	5	1224482	d	0	34.0	n/a	n/a	7
1226.999	0.0	nontarget	5	1226999	e	0	48.0	n/a	n/a	7
1229.449	0.0	nontarget	5	1229449	y	0	44.0	n/a	n/a	7
1231.499	0.0	nontarget	5	1231499	w	0	20.0	n/a	n/a	7
1233.732	0.0	nontarget	5	1233732	u	0	31.0	n/a	n/a	7
1236.048	0.0	nontarget	5	1236048	a	0	36.0	n/a	n/a	7
1238.498	0.0	target	6	1238498	w	1	44.0	1	0.3940242	7
1238.815	0.5	BAD keypress	2	1238815	n/a	n/a	n/a	n/a	n/a	n/a
1239.065	0.0	keypress	4	1239065	n/a	n/a	n/a	n/a	n/a	n/a
1240.548	0.0	nontarget	5	1240548	g	0	30.0	n/a	n/a	7
1243.031	0.0	nontarget	5	1243031	e	0	46.0	n/a	n/a	7
1245.281	0.0	nontarget	5	1245281	j	0	32.0	n/a	n/a	7
1247.381	0.0	nontarget	5	1247381	r	0	23.0	n/a	n/a	7
1249.414	0.0	nontarget	5	1249414	y	0	19.0	n/a	n/a	7
1251.781	0.0	nontarget	5	1251781	e	0	39.0	n/a	n/a	7
1254.014	0.0	nontarget	5	1254014	j	0	31.0	n/a	n/a	7
1256.481	0.0	target	6	1256481	d	1	45.0	1	0.4422541	7
1256.848	0.5	BAD keypress	2	1256848	n/a	n/a	n/a	n/a	n/a	n/a
1257.098	0.0	keypress	4	1257098	n/a	n/a	n/a	n/a	n/a	n/a
1258.497	0.0	nontarget	5	1258497	c	0	25.0	n/a	n/a	7
1260.531	0.0	nontarget	5	1260531	p	0	19.0	n/a	n/a	7
1263.047	0.0	nontarget	5	1263047	s	0	48.0	n/a	n/a	7
1265.347	0.0	nontarget	5	1265347	n	0	35.0	n/a	n/a	7
1267.597	0.0	nontarget	5	1267597	ä	0	32.0	n/a	n/a	7
1269.547	0.0	nontarget	5	1269547	g	0	14.0	n/a	n/a	7
1271.763	0.0	nontarget	5	1271763	y	0	30.0	n/a	n/a	7
1274.313	0.0	nontarget	5	1274313	s	0	50.0	n/a	n/a	7
1276.413	0.0	nontarget	5	1276413	i	0	23.0	n/a	n/a	7
1278.38	0.0	nontarget	5	1278380	q	0	15.0	n/a	n/a	7
1280.88	0.0	nontarget	5	1280880	r	0	47.0	n/a	n/a	7
1283.346	0.0	nontarget	5	1283346	d	0	45.0	n/a	n/a	7
1285.763	0.0	nontarget	5	1285763	b	0	42.0	n/a	n/a	7
1288.046	0.0	nontarget	5	1288046	k	0	34.0	n/a	n/a	7
1290.479	0.0	nontarget	5	1290479	u	0	43.0	n/a	n/a	7
1292.979	0.0	nontarget	5	1292979	e	0	47.0	n/a	n/a	7
1295.212	0.0	nontarget	5	1295212	d	0	31.0	n/a	n/a	7
1297.429	0.0	nontarget	5	1297429	s	0	30.0	n/a	n/a	7
1299.679	0.0	nontarget	5	1299679	ä	0	32.0	n/a	n/a	7
1301.945	0.0	nontarget	5	1301945	a	0	33.0	n/a	n/a	7
1304.179	0.0	nontarget	5	1304179	u	0	31.0	n/a	n/a	7
1306.295	0.0	nontarget	5	1306295	w	0	24.0	n/a	n/a	7
1308.829	0.0	nontarget	5	1308829	e	0	49.0	n/a	n/a	7
1311.245	0.0	nontarget	5	1311245	n	0	42.0	n/a	n/a	7
1313.445	0.0	nontarget	5	1313445	v	0	29.0	n/a	n/a	7
1315.712	0.0	target	6	1315712	k	1	33.0	1	0.3915018	7
1316.028	0.5	BAD keypress	2	1316028	n/a	n/a	n/a	n/a	n/a	n/a
1316.278	0.0	keypress	4	1316278	n/a	n/a	n/a	n/a	n/a	n/a
1317.745	0.0	nontarget	5	1317745	h	0	29.0	n/a	n/a	7
1318.845	84.51300000000015	BAD_break	3	1318845	n/a	n/a	n/a	n/a	n/a	n/a
1403.858	0.0	nontarget	5	1403858	x	0	45.0	n/a	n/a	8
1406.041	0.0	nontarget	5	1406041	d	0	28.0	n/a	n/a	8
1408.508	0.0	nontarget	5	1408508	j	0	45.0	n/a	n/a	8
1410.524	0.0	nontarget	5	1410524	w	0	18.0	n/a	n/a	8
1412.657	0.0	nontarget	5	1412657	h	0	25.0	n/a	n/a	8
1414.941	0.0	nontarget	5	1414941	i	0	34.0	n/a	n/a	8
1417.24	0.0	nontarget	5	1417240	l	0	35.0	n/a	n/a	8
1419.307	0.0	nontarget	5	1419307	g	0	21.0	n/a	n/a	8
1421.64	0.0	nontarget	5	1421640	ä	0	37.0	n/a	n/a	8
1423.924	0.0	nontarget	5	1423924	k	0	34.0	n/a	n/a	8
1426.223	0.0	nontarget	5	1426223	q	0	35.0	n/a	n/a	8
1428.257	0.0	target	6	1428257	c	1	19.0	1	0.4947156	8
1428.657	0.5	BAD keypress	2	1428657	n/a	n/a	n/a	n/a	n/a	n/a
1428.907	0.0	keypress	4	1428907	n/a	n/a	n/a	n/a	n/a	n/a
1430.457	0.0	nontarget	5	1430457	w	0	34.0	n/a	n/a	8
1432.89	0.0	nontarget	5	1432890	v	0	43.0	n/a	n/a	8
1434.923	0.0	nontarget	5	1434923	m	0	19.0	n/a	n/a	8
1437.306	0.0	nontarget	5	1437306	ä	0	40.0	n/a	n/a	8
1439.723	0.0	nontarget	5	1439723	j	0	42.0	n/a	n/a	8
1442.089	0.0	nontarget	5	1442089	r	0	39.0	n/a	n/a	8
1444.156	0.0	nontarget	5	1444156	w	0	21.0	n/a	n/a	8
1446.106	0.0	target	6	1446106	c	1	14.0	1	0.4043551	8
1446.423	0.5	BAD keypress	2	1446423	n/a	n/a	n/a	n/a	n/a	n/a
1446.673	0.0	keypress	4	1446673	n/a	n/a	n/a	n/a	n/a	n/a
1447.972	0.0	nontarget	5	1447972	i	0	19.0	n/a	n/a	8
1450.356	0.0	target	6	1450356	m	1	40.0	1	0.3942187	8
1450.639	0.5	BAD keypress	2	1450639	n/a	n/a	n/a	n/a	n/a	n/a
1450.889	0.0	keypress	4	1450889	n/a	n/a	n/a	n/a	n/a	n/a
1452.522	0.0	nontarget	5	1452522	m	0	39.0	n/a	n/a	8
1454.906	0.0	nontarget	5	1454906	u	0	40.0	n/a	n/a	8
1457.389	0.0	nontarget	5	1457389	s	0	46.0	n/a	n/a	8
1459.722	0.0	nontarget	5	1459722	ö	0	37.0	0	0.3713965	8
1459.722	1.0	BAD incorrect	1	1459722	ö	0	37.0	0	0.3713965	8
1459.939	0.5	BAD keypress	2	1459939	n/a	n/a	n/a	n/a	n/a	n/a
1460.189	0.0	keypress	4	1460189	n/a	n/a	n/a	n/a	n/a	n/a
1462.355	0.0	nontarget	5	1462355	b	0	40.0	n/a	n/a	8
1464.772	0.0	nontarget	5	1464772	c	0	42.0	n/a	n/a	8
1466.788	0.0	nontarget	5	1466788	g	0	18.0	n/a	n/a	8
1469.038	0.0	nontarget	5	1469038	o	0	32.0	n/a	n/a	8
1471.555	0.0	nontarget	5	1471555	e	0	48.0	n/a	n/a	8
1473.955	0.0	nontarget	5	1473955	u	0	41.0	n/a	n/a	8
1475.938	0.0	nontarget	5	1475938	k	0	16.0	n/a	n/a	8
1478.021	0.0	nontarget	5	1478021	ö	0	22.0	n/a	n/a	8
1480.521	0.0	nontarget	5	1480521	o	0	47.0	n/a	n/a	8
1482.754	0.0	nontarget	5	1482754	p	0	31.0	n/a	n/a	8
1485.304	0.0	target	6	1485304	r	1	50.0	1	0.4513485	8
1485.638	0.5	BAD keypress	2	1485638	n/a	n/a	n/a	n/a	n/a	n/a
1485.888	0.0	keypress	4	1485888	n/a	n/a	n/a	n/a	n/a	n/a
1487.204	0.0	nontarget	5	1487204	b	0	20.0	n/a	n/a	8
1489.504	0.0	nontarget	5	1489504	q	0	35.0	n/a	n/a	8
1491.921	0.0	nontarget	5	1491921	x	0	42.0	n/a	n/a	8
1494.237	0.0	target	6	1494237	b	1	36.0	1	0.4458346	8
1494.604	0.5	BAD keypress	2	1494604	n/a	n/a	n/a	n/a	n/a	n/a
1494.854	0.0	keypress	4	1494854	n/a	n/a	n/a	n/a	n/a	n/a
1496.104	0.0	nontarget	5	1496104	b	0	16.0	n/a	n/a	8
1498.354	0.0	nontarget	5	1498354	w	0	32.0	n/a	n/a	8
1500.87	0.0	nontarget	5	1500870	a	0	48.0	n/a	n/a	8
1503.17	0.0	nontarget	5	1503170	p	0	35.0	n/a	n/a	8
1505.42	0.0	nontarget	5	1505420	ß	0	32.0	n/a	n/a	8
1507.87	0.0	nontarget	5	1507870	z	0	44.0	n/a	n/a	8
1510.036	0.0	nontarget	5	1510036	y	0	27.0	n/a	n/a	8
1512.17	0.0	target	6	1512170	d	1	25.0	1	0.4801155	8
1512.553	0.5	BAD keypress	2	1512553	n/a	n/a	n/a	n/a	n/a	n/a
1512.803	0.0	keypress	4	1512803	n/a	n/a	n/a	n/a	n/a	n/a
1514.353	0.0	nontarget	5	1514353	p	0	34.0	n/a	n/a	8
1516.803	0.0	nontarget	5	1516803	a	0	44.0	n/a	n/a	8
1519.036	0.0	nontarget	5	1519036	ö	0	31.0	n/a	n/a	8
1520.986	0.0	target	6	1520986	f	1	14.0	1	0.4312165	8
1521.303	0.5	BAD keypress	2	1521303	n/a	n/a	n/a	n/a	n/a	n/a
1521.553	0.0	keypress	4	1521553	n/a	n/a	n/a	n/a	n/a	n/a
1523.003	0.0	nontarget	5	1523003	o	0	28.0	n/a	n/a	8
1524.986	0.0	nontarget	5	1524986	t	0	16.0	n/a	n/a	8
1527.186	0.0	nontarget	5	1527186	l	0	29.0	n/a	n/a	8
1529.669	0.0	nontarget	5	1529669	ß	0	46.0	n/a	n/a	8
1531.802	0.0	target	6	1531802	z	1	25.0	1	0.4142366	8
1532.102	0.5	BAD keypress	2	1532102	n/a	n/a	n/a	n/a	n/a	n/a
1532.352	0.0	keypress	4	1532352	n/a	n/a	n/a	n/a	n/a	n/a
1533.835	0.0	nontarget	5	1533835	g	0	30.0	n/a	n/a	8
1536.269	0.0	target	6	1536269	q	1	43.0	1	0.3953919	8
1536.569	0.5	BAD keypress	2	1536569	n/a	n/a	n/a	n/a	n/a	n/a
1536.819	0.0	keypress	4	1536819	n/a	n/a	n/a	n/a	n/a	n/a
1538.552	0.0	nontarget	5	1538552	k	0	45.0	n/a	n/a	8
1540.668	0.0	nontarget	5	1540668	b	0	24.0	n/a	n/a	8
1543.068	0.0	nontarget	5	1543068	h	0	41.0	n/a	n/a	8
1545.302	0.0	nontarget	5	1545302	ß	0	31.0	n/a	n/a	8
1547.651	0.0	target	6	1547651	s	1	38.0	1	0.4198538	8
1547.985	0.5	BAD keypress	2	1547985	n/a	n/a	n/a	n/a	n/a	n/a
1548.235	0.0	keypress	4	1548235	n/a	n/a	n/a	n/a	n/a	n/a
1549.635	0.0	nontarget	5	1549635	n	0	25.0	n/a	n/a	8
1550.735	10.149000000000116	BAD_break	3	1550735	n/a	n/a	n/a	n/a	n/a	n/a
1561.384	0.0	nontarget	5	1561384	v	0	25.0	n/a	n/a	9
1563.667	0.0	nontarget	5	1563667	t	0	34.0	n/a	n/a	9
1565.701	0.0	nontarget	5	1565701	b	0	19.0	n/a	n/a	9
1567.701	0.0	nontarget	5	1567701	g	0	17.0	n/a	n/a	9
1569.751	0.0	nontarget	5	1569751	p	0	20.0	n/a	n/a	9
1572.15	0.0	nontarget	5	1572150	ß	0	41.0	n/a	n/a	9
1574.65	0.0	nontarget	5	1574650	a	0	47.0	n/a	n/a	9
1576.684	0.0	nontarget	5	1576684	u	0	19.0	n/a	n/a	9
1578.683	0.0	target	6	1578683	l	1	17.0	1	0.4098616	9
1579.017	0.5	BAD keypress	2	1579017	n/a	n/a	n/a	n/a	n/a	n/a
1579.267	0.0	keypress	4	1579267	n/a	n/a	n/a	n/a	n/a	n/a
1580.683	0.0	nontarget	5	1580683	q	0	26.0	n/a	n/a	9
1582.883	0.0	nontarget	5	1582883	f	0	29.0	n/a	n/a	9
1584.85	0.0	nontarget	5	1584850	x	0	15.0	n/a	n/a	9
1587.316	0.0	nontarget	5	1587316	ä	0	45.0	n/a	n/a	9
1589.3	0.0	nontarget	5	1589300	s	0	16.0	n/a	n/a	9
1591.4	0.0	nontarget	5	1591400	k	0	23.0	n/a	n/a	9
1593.666	0.0	nontarget	5	1593666	ü	0	33.0	n/a	n/a	9
1595.833	0.0	nontarget	5	1595833	h	0	27.0	n/a	n/a	9
1597.949	0.0	target	6	1597949	e	1	24.0	1	0.5186449	9
1598.349	0.5	BAD keypress	2	1598349	n/a	n/a	n/a	n/a	n/a	n/a
1598.599	0.0	keypress	4	1598599	n/a	n/a	n/a	n/a	n/a	n/a
1600.249	0.0	nontarget	5	1600249	k	0	40.0	n/a	n/a	9
1602.782	0.0	target	6	1602782	ü	1	49.0	1	0.4052035	9
1603.099	0.5	BAD keypress	2	1603099	n/a	n/a	n/a	n/a	n/a	n/a
1603.349	0.0	keypress	4	1603349	n/a	n/a	n/a	n/a	n/a	n/a
1604.932	0.0	target	6	1604932	i	1	35.0	1	0.5431531	9
1605.382	0.5	BAD keypress	2	1605382	n/a	n/a	n/a	n/a	n/a	n/a
1605.632	0.0	keypress	4	1605632	n/a	n/a	n/a	n/a	n/a	n/a
1607.216	0.0	nontarget	5	1607216	e	0	36.0	n/a	n/a	9
1609.249	0.0	nontarget	5	1609249	u	0	19.0	n/a	n/a	9
1611.782	0.0	nontarget	5	1611782	i	0	49.0	n/a	n/a	9
1613.882	0.0	nontarget	5	1613882	g	0	23.0	n/a	n/a	9
1615.849	0.0	nontarget	5	1615849	j	0	15.0	n/a	n/a	9
1617.848	0.0	nontarget	5	1617848	z	0	17.0	n/a	n/a	9
1620.132	0.0	nontarget	5	1620132	u	0	34.0	n/a	n/a	9
1622.082	0.0	nontarget	5	1622082	n	0	14.0	n/a	n/a	9
1624.381	0.0	target	6	1624381	n	1	35.0	1	0.4046816	9
1624.715	0.5	BAD keypress	2	1624715	n/a	n/a	n/a	n/a	n/a	n/a
1624.965	0.0	keypress	4	1624965	n/a	n/a	n/a	n/a	n/a	n/a
1626.215	0.0	nontarget	5	1626215	a	0	16.0	n/a	n/a	9
1628.331	0.0	target	6	1628331	x	1	24.0	1	0.4065784	9
1628.631	0.5	BAD keypress	2	1628631	n/a	n/a	n/a	n/a	n/a	n/a
1628.881	0.0	keypress	4	1628881	n/a	n/a	n/a	n/a	n/a	n/a
1630.498	0.0	nontarget	5	1630498	n	0	38.0	n/a	n/a	9
1632.781	0.0	nontarget	5	1632781	e	0	34.0	n/a	n/a	9
1635.048	0.0	nontarget	5	1635048	m	0	33.0	n/a	n/a	9
1637.598	0.0	nontarget	5	1637598	j	0	50.0	n/a	n/a	9
1639.614	0.0	nontarget	5	1639614	w	0	18.0	n/a	n/a	9
1641.731	0.0	nontarget	5	1641731	i	0	24.0	n/a	n/a	9
1644.281	0.0	target	6	1644281	n	1	50.0	1	0.4243362	9
1644.631	0.5	BAD keypress	2	1644631	n/a	n/a	n/a	n/a	n/a	n/a
1644.881	0.0	keypress	4	1644881	n/a	n/a	n/a	n/a	n/a	n/a
1646.597	0.0	nontarget	5	1646597	b	0	44.0	n/a	n/a	9
1648.997	0.0	nontarget	5	1648997	l	0	41.0	n/a	n/a	9
1651.13	0.0	nontarget	5	1651130	r	0	25.0	n/a	n/a	9
1653.48	0.0	nontarget	5	1653480	y	0	38.0	n/a	n/a	9
1655.53	0.0	nontarget	5	1655530	j	0	20.0	n/a	n/a	9
1657.93	0.0	target	6	1657930	f	1	41.0	1	0.4059226	9
1658.313	0.5	BAD keypress	2	1658313	n/a	n/a	n/a	n/a	n/a	n/a
1658.563	0.0	keypress	4	1658563	n/a	n/a	n/a	n/a	n/a	n/a
1659.93	0.0	target	6	1659930	u	1	22.0	1	0.4217976	9
1660.247	0.5	BAD keypress	2	1660247	n/a	n/a	n/a	n/a	n/a	n/a
1660.497	0.0	keypress	4	1660497	n/a	n/a	n/a	n/a	n/a	n/a
1661.88	0.0	nontarget	5	1661880	r	0	24.0	n/a	n/a	9
1663.846	0.0	nontarget	5	1663846	ü	0	15.0	n/a	n/a	9
1666.313	0.0	nontarget	5	1666313	i	0	45.0	n/a	n/a	9
1668.463	0.0	nontarget	5	1668463	j	0	26.0	n/a	n/a	9
1670.463	0.0	nontarget	5	1670463	u	0	17.0	n/a	n/a	9
1672.679	0.0	nontarget	5	1672679	a	0	30.0	n/a	n/a	9
1674.713	0.0	nontarget	5	1674713	k	0	19.0	n/a	n/a	9
1677.229	0.0	target	6	1677229	x	1	48.0	1	0.4973848	9
1677.646	0.5	BAD keypress	2	1677646	n/a	n/a	n/a	n/a	n/a	n/a
1677.896	0.0	keypress	4	1677896	n/a	n/a	n/a	n/a	n/a	n/a
1679.446	0.0	target	6	1679446	e	1	34.0	1	0.5526844	9
1679.896	0.5	BAD keypress	2	1679896	n/a	n/a	n/a	n/a	n/a	n/a
1680.146	0.0	keypress	4	1680146	n/a	n/a	n/a	n/a	n/a	n/a
1681.379	0.0	nontarget	5	1681379	q	0	15.0	n/a	n/a	9
1683.379	0.0	target	6	1683379	d	1	17.0	1	0.3632773	9
1683.646	0.5	BAD keypress	2	1683646	n/a	n/a	n/a	n/a	n/a	n/a
1683.896	0.0	keypress	4	1683896	n/a	n/a	n/a	n/a	n/a	n/a
1685.512	0.0	nontarget	5	1685512	h	0	38.0	n/a	n/a	9
1687.812	0.0	target	6	1687812	y	1	35.0	1	0.3777501	9
1688.079	0.5	BAD keypress	2	1688079	n/a	n/a	n/a	n/a	n/a	n/a
1688.329	0.0	keypress	4	1688329	n/a	n/a	n/a	n/a	n/a	n/a
1689.945	0.0	nontarget	5	1689945	v	0	38.0	n/a	n/a	9
1692.212	0.0	nontarget	5	1692212	j	0	33.0	n/a	n/a	9
1694.528	0.0	nontarget	5	1694528	z	0	36.0	n/a	n/a	9
1697.078	0.0	nontarget	5	1697078	k	0	50.0	n/a	n/a	9
1699.628	0.0	target	6	1699628	z	1	50.0	1	0.3849276	9
1699.945	0.5	BAD keypress	2	1699945	n/a	n/a	n/a	n/a	n/a	n/a
1700.195	0.0	keypress	4	1700195	n/a	n/a	n/a	n/a	n/a	n/a
1701.461	0.0	nontarget	5	1701461	y	0	17.0	n/a	n/a	9
1703.828	0.0	nontarget	5	1703828	f	0	39.0	n/a	n/a	9
1704.928	8.583000000000084	BAD_break	3	1704928	n/a	n/a	n/a	n/a	n/a	n/a
1714.011	0.0	nontarget	5	1714011	h	0	48.0	n/a	n/a	10
1716.178	0.0	nontarget	5	1716178	l	0	27.0	n/a	n/a	10
1718.577	0.0	nontarget	5	1718577	ß	0	41.0	n/a	n/a	10
1720.544	0.0	nontarget	5	1720544	m	0	15.0	n/a	n/a	10
1722.977	0.0	nontarget	5	1722977	n	0	43.0	n/a	n/a	10
1725.427	0.0	nontarget	5	1725427	l	0	44.0	n/a	n/a	10
1727.894	0.0	nontarget	5	1727894	k	0	45.0	n/a	n/a	10
1730.344	0.0	nontarget	5	1730344	t	0	44.0	n/a	n/a	10
1732.327	0.0	nontarget	5	1732327	n	0	16.0	n/a	n/a	10
1734.677	0.0	nontarget	5	1734677	c	0	38.0	n/a	n/a	10
1737.093	0.0	nontarget	5	1737093	i	0	42.0	n/a	n/a	10
1739.526	0.0	nontarget	5	1739526	f	0	43.0	n/a	n/a	10
1741.576	0.0	nontarget	5	1741576	d	0	20.0	n/a	n/a	10
1743.61	0.0	nontarget	5	1743610	v	0	19.0	n/a	n/a	10
1745.66	0.0	nontarget	5	1745660	y	0	20.0	n/a	n/a	10
1748.143	0.0	target	6	1748143	c	1	46.0	1	0.5710956	10
1748.61	0.5	BAD keypress	2	1748610	n/a	n/a	n/a	n/a	n/a	n/a
1748.86	0.0	keypress	4	1748860	n/a	n/a	n/a	n/a	n/a	n/a
1750.409	0.0	nontarget	5	1750409	i	0	34.0	n/a	n/a	10
1752.493	0.0	nontarget	5	1752493	p	0	22.0	n/a	n/a	10
1754.659	0.0	nontarget	5	1754659	v	0	27.0	n/a	n/a	10
1756.776	0.0	target	6	1756776	o	1	24.0	1	0.4813704	10
1757.176	0.5	BAD keypress	2	1757176	n/a	n/a	n/a	n/a	n/a	n/a
1757.426	0.0	keypress	4	1757426	n/a	n/a	n/a	n/a	n/a	n/a
1758.726	0.0	nontarget	5	1758726	c	0	19.0	n/a	n/a	10
1761.092	0.0	nontarget	5	1761092	e	0	39.0	n/a	n/a	10
1763.159	0.0	nontarget	5	1763159	z	0	21.0	n/a	n/a	10
1765.492	0.0	nontarget	5	1765492	ß	0	37.0	n/a	n/a	10
1767.809	0.0	nontarget	5	1767809	ö	0	36.0	n/a	n/a	10
1770.242	0.0	nontarget	5	1770242	d	0	43.0	n/a	n/a	10
1772.208	0.0	nontarget	5	1772208	n	0	15.0	n/a	n/a	10
1774.542	0.0	nontarget	5	1774542	o	0	37.0	n/a	n/a	10
1776.925	0.0	nontarget	5	1776925	ö	0	40.0	n/a	n/a	10
1779.375	0.0	nontarget	5	1779375	i	0	44.0	n/a	n/a	10
1781.458	0.0	nontarget	5	1781458	q	0	22.0	n/a	n/a	10
1783.808	0.0	nontarget	5	1783808	y	0	38.0	n/a	n/a	10
1786.324	0.0	nontarget	5	1786324	p	0	48.0	n/a	n/a	10
1788.558	0.0	target	6	1788558	ä	1	31.0	1	0.521276	10
1789.008	0.5	BAD keypress	2	1789008	n/a	n/a	n/a	n/a	n/a	n/a
1789.258	0.0	keypress	4	1789258	n/a	n/a	n/a	n/a	n/a	n/a
1790.991	0.0	nontarget	5	1790991	ä	0	45.0	n/a	n/a	10
1792.991	0.0	target	6	1792991	g	1	17.0	0	n/a	10
1794.091	1.400000000000091	BAD_break	3	1794091	n/a	n/a	n/a	n/a	n/a	n/a
1795.991	0.0	nontarget	5	1795991	ü	0	46.0	n/a	n/a	10
1798.507	0.0	target	6	1798507	q	1	48.0	1	0.427124	10
1798.807	0.5	BAD keypress	2	1798807	n/a	n/a	n/a	n/a	n/a	n/a
1799.057	0.0	keypress	4	1799057	n/a	n/a	n/a	n/a	n/a	n/a
1800.641	0.0	nontarget	5	1800641	n	0	36.0	n/a	n/a	10
1802.657	0.0	nontarget	5	1802657	r	0	18.0	n/a	n/a	10
1805.057	0.0	nontarget	5	1805057	x	0	41.0	n/a	n/a	10
1807.074	0.0	nontarget	5	1807074	w	0	18.0	n/a	n/a	10
1809.607	0.0	nontarget	5	1809607	t	0	49.0	n/a	n/a	10
1811.557	0.0	nontarget	5	1811557	p	0	14.0	n/a	n/a	10
1813.74	0.0	nontarget	5	1813740	y	0	28.0	n/a	n/a	10
1816.24	0.0	target	6	1816240	d	1	47.0	1	0.357345	10
1816.507	0.5	BAD keypress	2	1816507	n/a	n/a	n/a	n/a	n/a	n/a
1816.757	0.0	keypress	4	1816757	n/a	n/a	n/a	n/a	n/a	n/a
1818.006	0.0	nontarget	5	1818006	b	0	16.0	n/a	n/a	10
1820.273	0.0	nontarget	5	1820273	ö	0	33.0	n/a	n/a	10
1822.256	0.0	nontarget	5	1822256	u	0	16.0	n/a	n/a	10
1824.506	0.0	target	6	1824506	i	1	32.0	1	0.4905381	10
1824.89	0.5	BAD keypress	2	1824890	n/a	n/a	n/a	n/a	n/a	n/a
1825.14	0.0	keypress	4	1825140	n/a	n/a	n/a	n/a	n/a	n/a
1826.606	0.0	target	6	1826606	n	1	29.0	1	0.3584339	10
1826.873	0.5	BAD keypress	2	1826873	n/a	n/a	n/a	n/a	n/a	n/a
1827.123	0.0	keypress	4	1827123	n/a	n/a	n/a	n/a	n/a	n/a
1828.339	0.0	nontarget	5	1828339	d	0	14.0	n/a	n/a	10
1830.673	0.0	nontarget	5	1830673	ö	0	37.0	n/a	n/a	10
1833.222	0.0	target	6	1833222	a	1	50.0	1	0.3655833	10
1833.489	0.5	BAD keypress	2	1833489	n/a	n/a	n/a	n/a	n/a	n/a
1833.739	0.0	keypress	4	1833739	n/a	n/a	n/a	n/a	n/a	n/a
1835.189	0.0	nontarget	5	1835189	a	0	28.0	n/a	n/a	10
1837.272	0.0	nontarget	5	1837272	c	0	22.0	n/a	n/a	10
1839.439	0.0	target	6	1839439	ü	1	27.0	1	0.3407666	10
1839.706	0.5	BAD keypress	2	1839706	n/a	n/a	n/a	n/a	n/a	n/a
1839.956	0.0	keypress	4	1839956	n/a	n/a	n/a	n/a	n/a	n/a
1841.455	0.0	nontarget	5	1841455	ü	0	31.0	n/a	n/a	10
1843.405	0.0	nontarget	5	1843405	t	0	14.0	n/a	n/a	10
1845.422	0.0	nontarget	5	1845422	r	0	18.0	n/a	n/a	10
1847.622	0.0	nontarget	5	1847622	h	0	29.0	n/a	n/a	10
1849.805	0.0	nontarget	5	1849805	e	0	28.0	n/a	n/a	10
1851.855	0.0	target	6	1851855	y	1	20.0	1	0.3718039	10
1852.138	0.5	BAD keypress	2	1852138	n/a	n/a	n/a	n/a	n/a	n/a
1852.388	0.0	keypress	4	1852388	n/a	n/a	n/a	n/a	n/a	n/a
1853.755	0.0	nontarget	5	1853755	c	0	23.0	n/a	n/a	10
1856.171	0.0	nontarget	5	1856171	t	0	42.0	n/a	n/a	10
1858.471	0.0	nontarget	5	1858471	ß	0	35.0	n/a	n/a	10
1859.571	10.200000000000044	BAD_break	3	1859571	n/a	n/a	n/a	n/a	n/a	n/a
1870.271	0.0	nontarget	5	1870271	u	0	43.0	n/a	n/a	11
1872.371	0.0	nontarget	5	1872371	q	0	23.0	n/a	n/a	11
1874.637	0.0	nontarget	5	1874637	e	0	33.0	n/a	n/a	11
1877.171	0.0	target	6	1877171	r	1	49.0	1	0.3825289	11
1877.454	0.5	BAD keypress	2	1877454	n/a	n/a	n/a	n/a	n/a	n/a
1877.704	0.0	keypress	4	1877704	n/a	n/a	n/a	n/a	n/a	n/a
1879.137	0.0	nontarget	5	1879137	b	0	27.0	n/a	n/a	11
1881.17	0.0	nontarget	5	1881170	i	0	19.0	n/a	n/a	11
1883.27	0.0	nontarget	5	1883270	o	0	23.0	n/a	n/a	11
1885.604	0.0	nontarget	5	1885604	c	0	37.0	n/a	n/a	11
1887.603	0.0	target	6	1887603	g	1	17.0	1	0.5409325	11
1888.054	0.5	BAD keypress	2	1888054	n/a	n/a	n/a	n/a	n/a	n/a
1888.304	0.0	keypress	4	1888304	n/a	n/a	n/a	n/a	n/a	n/a
1889.637	0.0	nontarget	5	1889637	x	0	21.0	n/a	n/a	11
1891.603	0.0	nontarget	5	1891603	y	0	15.0	n/a	n/a	11
1894.07	0.0	nontarget	5	1894070	i	0	45.0	n/a	n/a	11
1896.353	0.0	nontarget	5	1896353	n	0	34.0	n/a	n/a	11
1898.403	0.0	nontarget	5	1898403	b	0	20.0	n/a	n/a	11
1900.353	0.0	nontarget	5	1900353	c	0	14.0	n/a	n/a	11
1902.386	0.0	nontarget	5	1902386	ß	0	19.0	n/a	n/a	11
1904.853	0.0	nontarget	5	1904853	w	0	45.0	n/a	n/a	11
1907.186	0.0	nontarget	5	1907186	o	0	37.0	n/a	n/a	11
1909.736	0.0	nontarget	5	1909736	c	0	50.0	n/a	n/a	11
1911.736	0.0	nontarget	5	1911736	e	0	17.0	n/a	n/a	11
1914.119	0.0	nontarget	5	1914119	m	0	40.0	n/a	n/a	11
1916.186	0.0	target	6	1916186	n	1	21.0	1	0.388856	11
1916.452	0.5	BAD keypress	2	1916452	n/a	n/a	n/a	n/a	n/a	n/a
1916.702	0.0	keypress	4	1916702	n/a	n/a	n/a	n/a	n/a	n/a
1918.519	0.0	nontarget	5	1918519	f	0	50.0	n/a	n/a	11
1920.569	0.0	nontarget	5	1920569	j	0	20.0	n/a	n/a	11
1922.869	0.0	nontarget	5	1922869	d	0	35.0	n/a	n/a	11
1925.252	0.0	nontarget	5	1925252	ü	0	40.0	n/a	n/a	11
1927.452	0.0	nontarget	5	1927452	t	0	29.0	n/a	n/a	11
1929.752	0.0	target	6	1929752	a	1	35.0	1	0.4059238	11
1930.068	0.5	BAD keypress	2	1930068	n/a	n/a	n/a	n/a	n/a	n/a
1930.318	0.0	keypress	4	1930318	n/a	n/a	n/a	n/a	n/a	n/a
1931.668	0.0	nontarget	5	1931668	ß	0	22.0	n/a	n/a	11
1934.135	0.0	target	6	1934135	g	1	45.0	1	0.406452	11
1934.452	0.5	BAD keypress	2	1934452	n/a	n/a	n/a	n/a	n/a	n/a
1934.702	0.0	keypress	4	1934702	n/a	n/a	n/a	n/a	n/a	n/a
1935.985	0.0	nontarget	5	1935985	v	0	18.0	n/a	n/a	11
1938.101	0.0	nontarget	5	1938101	ü	0	24.0	n/a	n/a	11
1940.451	0.0	target	6	1940451	t	1	38.0	1	0.3776475	11
1940.751	0.5	BAD keypress	2	1940751	n/a	n/a	n/a	n/a	n/a	n/a
1941.001	0.0	keypress	4	1941001	n/a	n/a	n/a	n/a	n/a	n/a
1942.284	0.0	nontarget	5	1942284	ö	0	18.0	n/a	n/a	11
1944.501	0.0	nontarget	5	1944501	j	0	30.0	n/a	n/a	11
1946.868	0.0	nontarget	5	1946868	i	0	39.0	n/a	n/a	11
1949.184	0.0	nontarget	5	1949184	h	0	36.0	n/a	n/a	11
1951.467	0.0	nontarget	5	1951467	g	0	34.0	n/a	n/a	11
1953.467	0.0	nontarget	5	1953467	m	0	17.0	n/a	n/a	11
1955.85	0.0	target	6	1955850	p	1	40.0	1	0.401322	11
1956.167	0.5	BAD keypress	2	1956167	n/a	n/a	n/a	n/a	n/a	n/a
1956.417	0.0	keypress	4	1956417	n/a	n/a	n/a	n/a	n/a	n/a
1958.067	0.0	target	6	1958067	e	1	39.0	1	0.504592	11
1958.467	0.5	BAD keypress	2	1958467	n/a	n/a	n/a	n/a	n/a	n/a
1958.717	0.0	keypress	4	1958717	n/a	n/a	n/a	n/a	n/a	n/a
1960.45	0.0	nontarget	5	1960450	f	0	45.0	n/a	n/a	11
1962.934	0.0	nontarget	5	1962934	z	0	46.0	n/a	n/a	11
1965.417	0.0	nontarget	5	1965417	k	0	46.0	n/a	n/a	11
1967.667	0.0	nontarget	5	1967667	p	0	32.0	n/a	n/a	11
1969.917	0.0	target	6	1969917	ä	1	32.0	1	0.398307	11
1970.217	0.5	BAD keypress	2	1970217	n/a	n/a	n/a	n/a	n/a	n/a
1970.467	0.0	keypress	4	1970467	n/a	n/a	n/a	n/a	n/a	n/a
1971.8	0.0	nontarget	5	1971800	f	0	21.0	n/a	n/a	11
1974.183	0.0	nontarget	5	1974183	o	0	40.0	n/a	n/a	11
1976.55	0.0	nontarget	5	1976550	r	0	39.0	n/a	n/a	11
1979.016	0.0	nontarget	5	1979016	d	0	45.0	n/a	n/a	11
1981.383	0.0	nontarget	5	1981383	q	0	39.0	n/a	n/a	11
1983.416	0.0	target	6	1983416	x	1	19.0	1	0.3859879	11
1983.699	0.5	BAD keypress	2	1983699	n/a	n/a	n/a	n/a	n/a	n/a
1983.949	0.0	keypress	4	1983949	n/a	n/a	n/a	n/a	n/a	n/a
1985.383	0.0	nontarget	5	1985383	c	0	27.0	n/a	n/a	11
1987.616	0.0	target	6	1987616	k	1	31.0	1	0.393818	11
1987.933	0.5	BAD keypress	2	1987933	n/a	n/a	n/a	n/a	n/a	n/a
1988.183	0.0	keypress	4	1988183	n/a	n/a	n/a	n/a	n/a	n/a
1989.966	0.0	nontarget	5	1989966	w	0	48.0	n/a	n/a	11
1992.199	0.0	nontarget	5	1992199	t	0	31.0	n/a	n/a	11
1994.182	0.0	nontarget	5	1994182	ö	0	16.0	n/a	n/a	11
1996.299	0.0	nontarget	5	1996299	r	0	24.0	n/a	n/a	11
1998.482	0.0	nontarget	5	1998482	w	0	28.0	n/a	n/a	11
2000.665	0.0	nontarget	5	2000665	l	0	28.0	n/a	n/a	11
2003.098	0.0	nontarget	5	2003098	z	0	43.0	n/a	n/a	11
2005.315	0.0	nontarget	5	2005315	ß	0	30.0	n/a	n/a	11
2007.432	0.0	target	6	2007432	v	1	24.0	1	0.4007829	11
2007.748	0.5	BAD keypress	2	2007748	n/a	n/a	n/a	n/a	n/a	n/a
2007.998	0.0	keypress	4	2007998	n/a	n/a	n/a	n/a	n/a	n/a
2009.332	0.0	nontarget	5	2009332	o	0	21.0	n/a	n/a	11
2011.815	0.0	nontarget	5	2011815	u	0	46.0	n/a	n/a	11
2014.115	0.0	nontarget	5	2014115	ß	0	35.0	n/a	n/a	11
2015.215	8.666000000000167	BAD_break	3	2015215	n/a	n/a	n/a	n/a	n/a	n/a
2024.381	0.0	target	6	2024381	t	1	24.0	1	0.5062241	12
2024.781	0.5	BAD keypress	2	2024781	n/a	n/a	n/a	n/a	n/a	n/a
2025.031	0.0	keypress	4	2025031	n/a	n/a	n/a	n/a	n/a	n/a
2026.347	0.0	target	6	2026347	g	1	19.0	1	0.3795437	12
2026.681	0.5	BAD keypress	2	2026681	n/a	n/a	n/a	n/a	n/a	n/a
2026.931	0.0	keypress	4	2026931	n/a	n/a	n/a	n/a	n/a	n/a
2028.447	0.0	nontarget	5	2028447	p	0	31.0	n/a	n/a	12
2030.597	0.0	nontarget	5	2030597	q	0	26.0	n/a	n/a	12
2032.747	0.0	nontarget	5	2032747	i	0	26.0	n/a	n/a	12
2035.13	0.0	nontarget	5	2035130	f	0	40.0	n/a	n/a	12
2037.297	0.0	nontarget	5	2037297	k	0	27.0	n/a	n/a	12
2039.63	0.0	nontarget	5	2039630	c	0	37.0	n/a	n/a	12
2041.863	0.0	target	6	2041863	o	1	31.0	1	0.4465578	12
2042.197	0.5	BAD keypress	2	2042197	n/a	n/a	n/a	n/a	n/a	n/a
2042.447	0.0	keypress	4	2042447	n/a	n/a	n/a	n/a	n/a	n/a
2044.163	0.0	nontarget	5	2044163	ö	0	43.0	n/a	n/a	12
2046.263	0.0	target	6	2046263	q	1	23.0	1	0.4303661	12
2046.563	0.5	BAD keypress	2	2046563	n/a	n/a	n/a	n/a	n/a	n/a
2046.813	0.0	keypress	4	2046813	n/a	n/a	n/a	n/a	n/a	n/a
2048.08	0.0	nontarget	5	2048080	l	0	17.0	n/a	n/a	12
2050.196	0.0	nontarget	5	2050196	g	0	24.0	n/a	n/a	12
2052.58	0.0	nontarget	5	2052580	ö	0	40.0	n/a	n/a	12
2054.946	0.0	nontarget	5	2054946	x	0	39.0	n/a	n/a	12
2057.346	0.0	nontarget	5	2057346	i	0	41.0	n/a	n/a	12
2059.763	0.0	target	6	2059763	o	1	42.0	1	0.4341541	12
2060.079	0.5	BAD keypress	2	2060079	n/a	n/a	n/a	n/a	n/a	n/a
2060.329	0.0	keypress	4	2060329	n/a	n/a	n/a	n/a	n/a	n/a
2061.813	0.0	target	6	2061813	j	1	30.0	1	0.4799827	12
2062.196	0.5	BAD keypress	2	2062196	n/a	n/a	n/a	n/a	n/a	n/a
2062.446	0.0	keypress	4	2062446	n/a	n/a	n/a	n/a	n/a	n/a
2063.729	0.0	nontarget	5	2063729	t	0	18.0	n/a	n/a	12
2066.112	0.0	nontarget	5	2066112	y	0	40.0	n/a	n/a	12
2068.062	0.0	nontarget	5	2068062	k	0	14.0	n/a	n/a	12
2070.412	0.0	nontarget	5	2070412	p	0	38.0	n/a	n/a	12
2072.479	0.0	nontarget	5	2072479	ö	0	21.0	n/a	n/a	12
2074.579	0.0	nontarget	5	2074579	t	0	23.0	n/a	n/a	12
2076.995	0.0	nontarget	5	2076995	y	0	42.0	n/a	n/a	12
2079.262	0.0	nontarget	5	2079262	e	0	33.0	n/a	n/a	12
2081.262	0.0	nontarget	5	2081262	n	0	17.0	n/a	n/a	12
2083.495	0.0	nontarget	5	2083495	d	0	31.0	n/a	n/a	12
2085.445	0.0	target	6	2085445	ä	1	14.0	1	0.4460147	12
2085.795	0.5	BAD keypress	2	2085795	n/a	n/a	n/a	n/a	n/a	n/a
2086.045	0.0	keypress	4	2086045	n/a	n/a	n/a	n/a	n/a	n/a
2087.595	0.0	nontarget	5	2087595	ß	0	34.0	n/a	n/a	12
2089.895	0.0	nontarget	5	2089895	c	0	35.0	n/a	n/a	12
2092.445	0.0	nontarget	5	2092445	b	0	50.0	n/a	n/a	12
2094.994	0.0	nontarget	5	2094994	m	0	50.0	n/a	n/a	12
2096.994	0.0	nontarget	5	2096994	z	0	17.0	n/a	n/a	12
2099.378	0.0	target	6	2099378	l	1	40.0	1	0.5283932	12
2099.778	0.5	BAD keypress	2	2099778	n/a	n/a	n/a	n/a	n/a	n/a
2100.028	0.0	keypress	4	2100028	n/a	n/a	n/a	n/a	n/a	n/a
2101.511	0.0	nontarget	5	2101511	f	0	30.0	n/a	n/a	12
2103.861	0.0	nontarget	5	2103861	g	0	38.0	n/a	n/a	12
2106.044	0.0	nontarget	5	2106044	q	0	28.0	n/a	n/a	12
2108.277	0.0	target	6	2108277	h	1	31.0	1	0.4442179	12
2108.611	0.5	BAD keypress	2	2108611	n/a	n/a	n/a	n/a	n/a	n/a
2108.861	0.0	keypress	4	2108861	n/a	n/a	n/a	n/a	n/a	n/a
2110.361	0.0	nontarget	5	2110361	b	0	31.0	n/a	n/a	12
2112.644	0.0	nontarget	5	2112644	ä	0	34.0	n/a	n/a	12
2115.044	0.0	nontarget	5	2115044	e	0	41.0	n/a	n/a	12
2117.094	0.0	nontarget	5	2117094	f	0	20.0	n/a	n/a	12
2119.527	0.0	nontarget	5	2119527	ö	0	43.0	n/a	n/a	12
2121.677	0.0	nontarget	5	2121677	x	0	26.0	n/a	n/a	12
2124.193	0.0	nontarget	5	2124193	q	0	48.0	n/a	n/a	12
2126.31	0.0	nontarget	5	2126310	f	0	24.0	n/a	n/a	12
2128.76	0.0	nontarget	5	2128760	ü	0	44.0	n/a	n/a	12
2131.276	0.0	nontarget	5	2131276	h	0	48.0	n/a	n/a	12
2133.659	0.0	target	6	2133659	w	1	40.0	1	0.4202701	12
2133.976	0.5	BAD keypress	2	2133976	n/a	n/a	n/a	n/a	n/a	n/a
2134.226	0.0	keypress	4	2134226	n/a	n/a	n/a	n/a	n/a	n/a
2135.759	0.0	nontarget	5	2135759	ß	0	33.0	n/a	n/a	12
2137.926	0.0	nontarget	5	2137926	i	0	27.0	n/a	n/a	12
2139.993	0.0	nontarget	5	2139993	ü	0	21.0	n/a	n/a	12
2142.059	0.0	nontarget	5	2142059	d	0	21.0	n/a	n/a	12
2144.042	0.0	nontarget	5	2144042	n	0	16.0	n/a	n/a	12
2146.126	0.0	nontarget	5	2146126	q	0	22.0	n/a	n/a	12
2148.126	0.0	target	6	2148126	ä	1	17.0	1	0.369143	12
2148.459	0.5	BAD keypress	2	2148459	n/a	n/a	n/a	n/a	n/a	n/a
2148.709	0.0	keypress	4	2148709	n/a	n/a	n/a	n/a	n/a	n/a
2150.242	0.0	nontarget	5	2150242	o	0	33.0	n/a	n/a	12
2152.292	0.0	nontarget	5	2152292	ü	0	20.0	n/a	n/a	12
2154.742	0.0	nontarget	5	2154742	x	0	44.0	n/a	n/a	12
2157.275	0.0	nontarget	5	2157275	f	0	49.0	n/a	n/a	12
2159.258	0.0	nontarget	5	2159258	k	0	16.0	n/a	n/a	12
2161.325	0.0	nontarget	5	2161325	n	0	21.0	n/a	n/a	12
2163.725	0.0	nontarget	5	2163725	s	0	41.0	n/a	n/a	12
2165.925	0.0	nontarget	5	2165925	b	0	29.0	n/a	n/a	12
2168.041	0.0	nontarget	5	2168041	v	0	24.0	n/a	n/a	12
2169.141	10.615999999999984	BAD_break	3	2169141	n/a	n/a	n/a	n/a	n/a	n/a
2180.257	0.0	nontarget	5	2180257	g	0	27.0	n/a	n/a	13
2182.341	0.0	nontarget	5	2182341	r	0	22.0	n/a	n/a	13
2184.874	0.0	target	6	2184874	c	1	49.0	1	0.3543127	13
2185.124	0.5	BAD keypress	2	2185124	n/a	n/a	n/a	n/a	n/a	n/a
2185.374	0.0	keypress	4	2185374	n/a	n/a	n/a	n/a	n/a	n/a
2186.724	0.0	nontarget	5	2186724	ß	0	22.0	n/a	n/a	13
2189.057	0.0	nontarget	5	2189057	q	0	37.0	n/a	n/a	13
2191.524	0.0	nontarget	5	2191524	p	0	45.0	n/a	n/a	13
2193.957	0.0	nontarget	5	2193957	z	0	43.0	n/a	n/a	13
2196.357	0.0	nontarget	5	2196357	v	0	41.0	n/a	n/a	13
2198.307	0.0	nontarget	5	2198307	x	0	14.0	n/a	n/a	13
2200.573	0.0	nontarget	5	2200573	r	0	33.0	n/a	n/a	13
2202.557	0.0	nontarget	5	2202557	w	0	16.0	n/a	n/a	13
2205.056	0.0	nontarget	5	2205056	y	0	47.0	n/a	n/a	13
2207.073	0.0	nontarget	5	2207073	l	0	18.0	n/a	n/a	13
2209.156	0.0	nontarget	5	2209156	z	0	22.0	n/a	n/a	13
2211.589	0.0	nontarget	5	2211589	r	0	43.0	n/a	n/a	13
2213.723	0.0	target	6	2213723	x	1	25.0	1	0.4636368	13
2214.089	0.5	BAD keypress	2	2214089	n/a	n/a	n/a	n/a	n/a	n/a
2214.339	0.0	keypress	4	2214339	n/a	n/a	n/a	n/a	n/a	n/a
2215.606	0.0	nontarget	5	2215606	q	0	17.0	n/a	n/a	13
2217.706	0.0	nontarget	5	2217706	ö	0	23.0	n/a	n/a	13
2220.139	0.0	nontarget	5	2220139	k	0	43.0	n/a	n/a	13
2222.239	0.0	nontarget	5	2222239	h	0	23.0	n/a	n/a	13
2224.739	0.0	nontarget	5	2224739	y	0	47.0	n/a	n/a	13
2227.022	0.0	target	6	2227022	ü	1	34.0	1	0.3793239	13
2227.322	0.5	BAD keypress	2	2227322	n/a	n/a	n/a	n/a	n/a	n/a
2227.572	0.0	keypress	4	2227572	n/a	n/a	n/a	n/a	n/a	n/a
2229.172	0.0	nontarget	5	2229172	o	0	37.0	n/a	n/a	13
2231.422	0.0	nontarget	5	2231422	w	0	32.0	n/a	n/a	13
2233.939	0.0	nontarget	5	2233939	y	0	48.0	n/a	n/a	13
2236.055	0.0	nontarget	5	2236055	r	0	24.0	n/a	n/a	13
2238.122	0.0	nontarget	5	2238122	j	0	21.0	n/a	n/a	13
2240.538	0.0	nontarget	5	2240538	s	0	42.0	n/a	n/a	13
2242.538	0.0	target	6	2242538	f	1	17.0	1	0.4142403	13
2242.872	0.5	BAD keypress	2	2242872	n/a	n/a	n/a	n/a	n/a	n/a
2243.122	0.0	keypress	4	2243122	n/a	n/a	n/a	n/a	n/a	n/a
2244.555	0.0	nontarget	5	2244555	c	0	27.0	n/a	n/a	13
2246.538	0.0	nontarget	5	2246538	w	0	16.0	n/a	n/a	13
2248.555	0.0	nontarget	5	2248555	ß	0	18.0	n/a	n/a	13
2251.104	0.0	nontarget	5	2251104	q	0	50.0	n/a	n/a	13
2253.338	0.0	target	6	2253338	s	1	31.0	1	0.3979196	13
2253.654	0.5	BAD keypress	2	2253654	n/a	n/a	n/a	n/a	n/a	n/a
2253.904	0.0	keypress	4	2253904	n/a	n/a	n/a	n/a	n/a	n/a
2255.621	0.0	target	6	2255621	u	1	44.0	1	0.4507449	13
2255.954	0.5	BAD keypress	2	2255954	n/a	n/a	n/a	n/a	n/a	n/a
2256.204	0.0	keypress	4	2256204	n/a	n/a	n/a	n/a	n/a	n/a
2257.704	0.0	nontarget	5	2257704	ß	0	31.0	n/a	n/a	13
2260.037	0.0	nontarget	5	2260037	z	0	37.0	n/a	n/a	13
2262.387	0.0	nontarget	5	2262387	ü	0	38.0	n/a	n/a	13
2264.587	0.0	target	6	2264587	q	1	29.0	1	0.411668	13
2264.904	0.5	BAD keypress	2	2264904	n/a	n/a	n/a	n/a	n/a	n/a
2265.154	0.0	keypress	4	2265154	n/a	n/a	n/a	n/a	n/a	n/a
2266.787	0.0	nontarget	5	2266787	b	0	39.0	n/a	n/a	13
2269.304	0.0	nontarget	5	2269304	f	0	48.0	n/a	n/a	13
2271.42	0.0	nontarget	5	2271420	c	0	24.0	n/a	n/a	13
2273.37	0.0	nontarget	5	2273370	w	0	14.0	n/a	n/a	13
2275.77	0.0	nontarget	5	2275770	o	0	41.0	n/a	n/a	13
2277.92	0.0	nontarget	5	2277920	r	0	26.0	n/a	n/a	13
2280.236	0.0	nontarget	5	2280236	v	0	36.0	n/a	n/a	13
2282.453	0.0	target	6	2282453	a	1	30.0	1	0.3525751	13
2282.72	0.5	BAD keypress	2	2282720	n/a	n/a	n/a	n/a	n/a	n/a
2282.97	0.0	keypress	4	2282970	n/a	n/a	n/a	n/a	n/a	n/a
2284.72	0.0	nontarget	5	2284720	p	0	46.0	n/a	n/a	13
2286.986	0.0	nontarget	5	2286986	n	0	33.0	n/a	n/a	13
2289.069	0.0	nontarget	5	2289069	e	0	22.0	n/a	n/a	13
2291.269	0.0	nontarget	5	2291269	x	0	29.0	n/a	n/a	13
2293.336	0.0	nontarget	5	2293336	u	0	21.0	n/a	n/a	13
2295.453	0.0	nontarget	5	2295453	d	0	24.0	n/a	n/a	13
2297.452	0.0	nontarget	5	2297452	t	0	17.0	n/a	n/a	13
2299.552	0.0	nontarget	5	2299552	p	0	23.0	n/a	n/a	13
2301.886	0.0	nontarget	5	2301886	a	0	37.0	n/a	n/a	13
2304.152	0.0	nontarget	5	2304152	d	0	33.0	n/a	n/a	13
2306.169	0.0	target	6	2306169	b	1	18.0	1	0.3633456	13
2306.452	0.5	BAD keypress	2	2306452	n/a	n/a	n/a	n/a	n/a	n/a
2306.702	0.0	keypress	4	2306702	n/a	n/a	n/a	n/a	n/a	n/a
2308.469	0.0	nontarget	5	2308469	e	0	47.0	n/a	n/a	13
2310.952	0.0	nontarget	5	2310952	k	0	46.0	n/a	n/a	13
2312.935	0.0	nontarget	5	2312935	ä	0	16.0	n/a	n/a	13
2315.418	0.0	nontarget	5	2315418	l	0	46.0	n/a	n/a	13
2317.868	0.0	nontarget	5	2317868	u	0	44.0	n/a	n/a	13
2320.151	0.0	nontarget	5	2320151	b	0	34.0	n/a	n/a	13
2322.218	0.0	target	6	2322218	m	1	21.0	1	0.4089056	13
2322.535	0.5	BAD keypress	2	2322535	n/a	n/a	n/a	n/a	n/a	n/a
2322.785	0.0	keypress	4	2322785	n/a	n/a	n/a	n/a	n/a	n/a
2324.085	0.0	nontarget	5	2324085	x	0	19.0	n/a	n/a	13
2325.185	8.916000000000167	BAD_break	3	2325185	n/a	n/a	n/a	n/a	n/a	n/a
2334.601	0.0	nontarget	5	2334601	c	0	24.0	n/a	n/a	14
2336.801	0.0	nontarget	5	2336801	n	0	29.0	n/a	n/a	14
2338.867	0.0	target	6	2338867	w	1	21.0	1	0.3825282	14
2339.151	0.5	BAD keypress	2	2339151	n/a	n/a	n/a	n/a	n/a	n/a
2339.401	0.0	keypress	4	2339401	n/a	n/a	n/a	n/a	n/a	n/a
2340.767	0.0	target	6	2340767	p	1	23.0	1	0.4184877	14
2341.051	0.5	BAD keypress	2	2341051	n/a	n/a	n/a	n/a	n/a	n/a
2341.301	0.0	keypress	4	2341301	n/a	n/a	n/a	n/a	n/a	n/a
2342.667	0.0	nontarget	5	2342667	p	0	22.0	n/a	n/a	14
2344.834	0.0	nontarget	5	2344834	x	0	27.0	n/a	n/a	14
2347.134	0.0	nontarget	5	2347134	k	0	35.0	n/a	n/a	14
2349.6	0.0	nontarget	5	2349600	b	0	45.0	n/a	n/a	14
2352.0	0.0	target	6	2352000	i	1	41.0	1	0.3848121	14
2352.3	0.5	BAD keypress	2	2352300	n/a	n/a	n/a	n/a	n/a	n/a
2352.55	0.0	keypress	4	2352550	n/a	n/a	n/a	n/a	n/a	n/a
2354.067	0.0	target	6	2354067	z	1	32.0	1	0.4461255	14
2354.383	0.5	BAD keypress	2	2354383	n/a	n/a	n/a	n/a	n/a	n/a
2354.633	0.0	keypress	4	2354633	n/a	n/a	n/a	n/a	n/a	n/a
2356.25	0.0	nontarget	5	2356250	m	0	38.0	n/a	n/a	14
2358.466	0.0	target	6	2358466	j	1	30.0	1	0.4460192	14
2358.817	0.5	BAD keypress	2	2358817	n/a	n/a	n/a	n/a	n/a	n/a
2359.067	0.0	keypress	4	2359067	n/a	n/a	n/a	n/a	n/a	n/a
2360.65	0.0	nontarget	5	2360650	g	0	35.0	n/a	n/a	14
2362.833	0.0	nontarget	5	2362833	p	0	28.0	n/a	n/a	14
2365.083	0.0	target	6	2365083	b	1	32.0	1	0.3572422	14
2365.35	0.5	BAD keypress	2	2365350	n/a	n/a	n/a	n/a	n/a	n/a
2365.6	0.0	keypress	4	2365600	n/a	n/a	n/a	n/a	n/a	n/a
2367.416	0.0	nontarget	5	2367416	a	0	50.0	n/a	n/a	14
2369.933	0.0	target	6	2369933	h	1	48.0	1	0.3710566	14
2370.199	0.5	BAD keypress	2	2370199	n/a	n/a	n/a	n/a	n/a	n/a
2370.449	0.0	keypress	4	2370449	n/a	n/a	n/a	n/a	n/a	n/a
2371.966	0.0	nontarget	5	2371966	ä	0	32.0	n/a	n/a	14
2374.382	0.0	nontarget	5	2374382	r	0	42.0	n/a	n/a	14
2376.766	0.0	nontarget	5	2376766	j	0	40.0	n/a	n/a	14
2379.216	0.0	nontarget	5	2379216	s	0	44.0	n/a	n/a	14
2381.365	0.0	target	6	2381365	u	1	26.0	1	0.3454741	14
2381.599	0.5	BAD keypress	2	2381599	n/a	n/a	n/a	n/a	n/a	n/a
2381.849	0.0	keypress	4	2381849	n/a	n/a	n/a	n/a	n/a	n/a
2383.615	0.0	nontarget	5	2383615	ü	0	47.0	n/a	n/a	14
2385.632	0.0	target	6	2385632	i	1	18.0	1	0.4147091	14
2385.949	0.5	BAD keypress	2	2385949	n/a	n/a	n/a	n/a	n/a	n/a
2386.199	0.0	keypress	4	2386199	n/a	n/a	n/a	n/a	n/a	n/a
2387.699	0.0	nontarget	5	2387699	o	0	31.0	n/a	n/a	14
2389.882	0.0	nontarget	5	2389882	r	0	28.0	n/a	n/a	14
2391.948	0.0	nontarget	5	2391948	v	0	21.0	n/a	n/a	14
2393.982	0.0	target	6	2393982	a	1	19.0	1	0.3845313	14
2394.265	0.5	BAD keypress	2	2394265	n/a	n/a	n/a	n/a	n/a	n/a
2394.515	0.0	keypress	4	2394515	n/a	n/a	n/a	n/a	n/a	n/a
2396.148	0.0	nontarget	5	2396148	t	0	39.0	n/a	n/a	14
2398.165	0.0	nontarget	5	2398165	a	0	18.0	n/a	n/a	14
2400.248	0.0	nontarget	5	2400248	x	0	22.0	n/a	n/a	14
2402.548	0.0	nontarget	5	2402548	o	0	35.0	n/a	n/a	14
2404.864	0.0	nontarget	5	2404864	ß	0	36.0	n/a	n/a	14
2406.981	0.0	target	6	2406981	q	1	24.0	1	0.4082542	14
2407.298	0.5	BAD keypress	2	2407298	n/a	n/a	n/a	n/a	n/a	n/a
2407.548	0.0	keypress	4	2407548	n/a	n/a	n/a	n/a	n/a	n/a
2408.914	0.0	nontarget	5	2408914	w	0	23.0	n/a	n/a	14
2411.231	0.0	target	6	2411231	ü	1	36.0	1	0.3981175	14
2411.548	0.5	BAD keypress	2	2411548	n/a	n/a	n/a	n/a	n/a	n/a
2411.798	0.0	keypress	4	2411798	n/a	n/a	n/a	n/a	n/a	n/a
2413.381	0.0	nontarget	5	2413381	f	0	36.0	n/a	n/a	14
2415.381	0.0	nontarget	5	2415381	l	0	17.0	n/a	n/a	14
2417.797	0.0	nontarget	5	2417797	d	0	42.0	n/a	n/a	14
2419.93	0.0	target	6	2419930	y	1	25.0	1	0.4019138	14
2420.247	0.5	BAD keypress	2	2420247	n/a	n/a	n/a	n/a	n/a	n/a
2420.497	0.0	keypress	4	2420497	n/a	n/a	n/a	n/a	n/a	n/a
2422.147	0.0	nontarget	5	2422147	k	0	40.0	n/a	n/a	14
2424.264	0.0	nontarget	5	2424264	z	0	24.0	n/a	n/a	14
2426.747	0.0	nontarget	5	2426747	q	0	46.0	n/a	n/a	14
2428.963	0.0	nontarget	5	2428963	x	0	30.0	n/a	n/a	14
2431.213	0.0	nontarget	5	2431213	r	0	32.0	n/a	n/a	14
2433.43	0.0	nontarget	5	2433430	b	0	30.0	n/a	n/a	14
2435.963	0.0	nontarget	5	2435963	ü	0	49.0	n/a	n/a	14
2438.413	0.0	nontarget	5	2438413	f	0	44.0	n/a	n/a	14
2440.463	0.0	nontarget	5	2440463	ß	0	20.0	n/a	n/a	14
2442.979	0.0	nontarget	5	2442979	j	0	48.0	n/a	n/a	14
2445.446	0.0	nontarget	5	2445446	c	0	45.0	n/a	n/a	14
2447.746	0.0	nontarget	5	2447746	m	0	35.0	n/a	n/a	14
2449.963	0.0	nontarget	5	2449963	k	0	30.0	n/a	n/a	14
2452.262	0.0	target	6	2452262	v	1	35.0	1	0.4357233	14
2452.629	0.5	BAD keypress	2	2452629	n/a	n/a	n/a	n/a	n/a	n/a
2452.879	0.0	keypress	4	2452879	n/a	n/a	n/a	n/a	n/a	n/a
2454.329	0.0	nontarget	5	2454329	q	0	28.0	n/a	n/a	14
2456.812	0.0	nontarget	5	2456812	s	0	46.0	n/a	n/a	14
2459.179	0.0	nontarget	5	2459179	o	0	39.0	n/a	n/a	14
2461.529	0.0	nontarget	5	2461529	i	0	38.0	n/a	n/a	14
2463.512	0.0	nontarget	5	2463512	n	0	16.0	n/a	n/a	14
2465.512	0.0	nontarget	5	2465512	k	0	17.0	n/a	n/a	14
2466.612	8.427000000000135	BAD_break	3	2466612	n/a	n/a	n/a	n/a	n/a	n/a
