onset	duration	trial_type	value	sample	stimulus	target	blank_jitter_frames	accuracy	response_time	block
0.0	174.007	BAD_break	3	0	n/a	n/a	n/a	n/a	n/a	n/a
174.507	0.0	nontarget	5	174507	ü	0	38.0	n/a	n/a	1
176.874	0.0	target	6	176874	s	1	39.0	1	0.4271275	1
177.14	0.5	BAD keypress	2	177140	n/a	n/a	n/a	n/a	n/a	n/a
177.39	0.0	keypress	4	177390	n/a	n/a	n/a	n/a	n/a	n/a
179.207	0.0	nontarget	5	179207	e	0	50.0	n/a	n/a	1
181.207	0.0	target	6	181207	h	1	17.0	1	0.3497045	1
181.407	0.5	BAD keypress	2	181407	n/a	n/a	n/a	n/a	n/a	n/a
181.657	0.0	keypress	4	181657	n/a	n/a	n/a	n/a	n/a	n/a
183.29	0.0	nontarget	5	183290	c	0	39.0	n/a	n/a	1
185.79	0.0	nontarget	5	185790	v	0	47.0	n/a	n/a	1
187.99	0.0	nontarget	5	187990	t	0	29.0	n/a	n/a	1
190.156	0.0	nontarget	5	190156	z	0	27.0	n/a	n/a	1
192.49	0.0	nontarget	5	192490	l	0	37.0	n/a	n/a	1
194.44	0.0	nontarget	5	194440	w	0	14.0	n/a	n/a	1
196.689	0.0	nontarget	5	196689	x	0	32.0	n/a	n/a	1
198.906	0.0	nontarget	5	198906	i	0	30.0	n/a	n/a	1
200.856	0.0	nontarget	5	200856	ä	0	14.0	n/a	n/a	1
203.172	0.0	nontarget	5	203172	f	0	36.0	n/a	n/a	1
205.206	0.0	nontarget	5	205206	l	0	19.0	n/a	n/a	1
207.389	0.0	nontarget	5	207389	o	0	28.0	n/a	n/a	1
209.922	0.0	nontarget	5	209922	k	0	49.0	n/a	n/a	1
212.055	0.0	nontarget	5	212055	ö	0	25.0	n/a	n/a	1
214.539	0.0	target	6	214539	l	1	46.0	1	0.4077184	1
214.789	0.5	BAD keypress	2	214789	n/a	n/a	n/a	n/a	n/a	n/a
215.039	0.0	keypress	4	215039	n/a	n/a	n/a	n/a	n/a	n/a
216.705	0.0	nontarget	5	216705	d	0	41.0	0	0.3850139	1
216.705	1.0	BAD incorrect	1	216705	d	0	41.0	0	0.3850139	1
216.905	0.5	BAD keypress	2	216905	n/a	n/a	n/a	n/a	n/a	n/a
217.155	0.0	keypress	4	217155	n/a	n/a	n/a	n/a	n/a	n/a
219.072	0.0	nontarget	5	219072	b	0	25.0	n/a	n/a	1
221.422	0.0	nontarget	5	221422	f	0	38.0	n/a	n/a	1
223.455	0.0	target	6	223455	v	1	19.0	1	0.4669373	1
223.772	0.5	BAD keypress	2	223772	n/a	n/a	n/a	n/a	n/a	n/a
224.022	0.0	keypress	4	224022	n/a	n/a	n/a	n/a	n/a	n/a
225.472	0.0	target	6	225472	q	1	27.0	1	0.4820518	1
225.788	0.5	BAD keypress	2	225788	n/a	n/a	n/a	n/a	n/a	n/a
226.038	0.0	keypress	4	226038	n/a	n/a	n/a	n/a	n/a	n/a
227.421	0.0	nontarget	5	227421	s	0	24.0	n/a	n/a	1
229.955	0.0	nontarget	5	229955	ü	0	49.0	n/a	n/a	1
232.388	0.0	nontarget	5	232388	g	0	43.0	n/a	n/a	1
234.888	0.0	nontarget	5	234888	e	0	47.0	n/a	n/a	1
237.238	0.0	nontarget	5	237238	m	0	38.0	n/a	n/a	1
239.371	0.0	nontarget	5	239371	ä	0	25.0	n/a	n/a	1
241.371	0.0	nontarget	5	241371	g	0	17.0	n/a	n/a	1
243.921	0.0	nontarget	5	243921	w	0	50.0	n/a	n/a	1
246.304	0.0	nontarget	5	246304	d	0	40.0	n/a	n/a	1
248.837	0.0	nontarget	5	248837	n	0	49.0	n/a	n/a	1
250.804	0.0	nontarget	5	250804	m	0	15.0	n/a	n/a	1
253.22	0.0	nontarget	5	253220	e	0	42.0	n/a	n/a	1
255.653	0.0	nontarget	5	255653	u	0	43.0	n/a	n/a	1
258.003	0.0	nontarget	5	258003	ö	0	38.0	n/a	n/a	1
260.403	0.0	target	6	260403	e	1	41.0	1	0.4119341	1
260.653	0.5	BAD keypress	2	260653	n/a	n/a	n/a	n/a	n/a	n/a
260.903	0.0	keypress	4	260903	n/a	n/a	n/a	n/a	n/a	n/a
262.537	0.0	target	6	262537	ä	1	38.0	1	0.5185861	1
262.853	0.5	BAD keypress	2	262853	n/a	n/a	n/a	n/a	n/a	n/a
263.103	0.0	keypress	4	263103	n/a	n/a	n/a	n/a	n/a	n/a
264.636	0.0	nontarget	5	264636	k	0	33.0	n/a	n/a	1
267.003	0.0	target	6	267003	a	1	39.0	1	0.3878975	1
267.236	0.5	BAD keypress	2	267236	n/a	n/a	n/a	n/a	n/a	n/a
267.486	0.0	keypress	4	267486	n/a	n/a	n/a	n/a	n/a	n/a
269.236	0.0	nontarget	5	269236	j	0	45.0	n/a	n/a	1
271.336	0.0	nontarget	5	271336	b	0	23.0	n/a	n/a	1
273.519	0.0	nontarget	5	273519	m	0	28.0	n/a	n/a	1
275.869	0.0	target	6	275869	o	1	38.0	1	0.4330181	1
276.119	0.5	BAD keypress	2	276119	n/a	n/a	n/a	n/a	n/a	n/a
276.369	0.0	keypress	4	276369	n/a	n/a	n/a	n/a	n/a	n/a
278.186	0.0	nontarget	5	278186	c	0	50.0	0	0.3722979	1
278.186	1.0	BAD incorrect	1	278186	c	0	50.0	0	0.3722979	1
278.419	0.5	BAD keypress	2	278419	n/a	n/a	n/a	n/a	n/a	n/a
278.669	0.0	keypress	4	278669	n/a	n/a	n/a	n/a	n/a	n/a
280.752	0.0	nontarget	5	280752	q	0	35.0	0	0.445568	1
280.752	1.0	BAD incorrect	1	280752	q	0	35.0	0	0.445568	1
281.002	0.5	BAD keypress	2	281002	n/a	n/a	n/a	n/a	n/a	n/a
281.252	0.0	keypress	4	281252	n/a	n/a	n/a	n/a	n/a	n/a
283.236	0.0	target	6	283236	h	1	29.0	1	0.4421629	1
283.536	0.5	BAD keypress	2	283536	n/a	n/a	n/a	n/a	n/a	n/a
283.786	0.0	keypress	4	283786	n/a	n/a	n/a	n/a	n/a	n/a
285.069	0.0	nontarget	5	285069	e	0	18.0	n/a	n/a	1
287.085	0.0	nontarget	5	287085	n	0	18.0	n/a	n/a	1
289.535	0.0	nontarget	5	289535	o	0	44.0	n/a	n/a	1
291.535	0.0	nontarget	5	291535	x	0	17.0	n/a	n/a	1
294.002	0.0	nontarget	5	294002	r	0	45.0	n/a	n/a	1
296.535	0.0	nontarget	5	296535	c	0	49.0	n/a	n/a	1
298.568	0.0	nontarget	5	298568	t	0	19.0	n/a	n/a	1
300.835	0.0	target	6	300835	p	1	33.0	1	0.4578104	1
301.135	0.5	BAD keypress	2	301135	n/a	n/a	n/a	n/a	n/a	n/a
301.385	0.0	keypress	4	301385	n/a	n/a	n/a	n/a	n/a	n/a
302.935	0.0	nontarget	5	302935	x	0	34.0	n/a	n/a	1
305.435	0.0	target	6	305435	e	1	47.0	1	0.4176862	1
305.685	0.5	BAD keypress	2	305685	n/a	n/a	n/a	n/a	n/a	n/a
305.935	0.0	keypress	4	305935	n/a	n/a	n/a	n/a	n/a	n/a
307.451	0.0	target	6	307451	x	1	32.0	1	0.513009	1
307.768	0.5	BAD keypress	2	307768	n/a	n/a	n/a	n/a	n/a	n/a
308.018	0.0	keypress	4	308018	n/a	n/a	n/a	n/a	n/a	n/a
309.551	0.0	nontarget	5	309551	b	0	33.0	n/a	n/a	1
311.518	0.0	nontarget	5	311518	ß	0	15.0	n/a	n/a	1
313.551	0.0	nontarget	5	313551	o	0	19.0	n/a	n/a	1
315.751	0.0	nontarget	5	315751	k	0	29.0	n/a	n/a	1
318.067	0.0	nontarget	5	318067	i	0	36.0	n/a	n/a	1
320.467	0.0	nontarget	5	320467	m	0	41.0	n/a	n/a	1
321.567	24.216000000000008	BAD_break	3	321567	n/a	n/a	n/a	n/a	n/a	n/a
346.283	0.0	nontarget	5	346283	ä	0	16.0	n/a	n/a	2
348.633	0.0	nontarget	5	348633	t	0	38.0	n/a	n/a	2
351.066	0.0	nontarget	5	351066	ß	0	43.0	n/a	n/a	2
353.049	0.0	nontarget	5	353049	n	0	16.0	n/a	n/a	2
355.349	0.0	nontarget	5	355349	a	0	35.0	n/a	n/a	2
357.549	0.0	nontarget	5	357549	c	0	29.0	n/a	n/a	2
359.915	0.0	nontarget	5	359915	h	0	39.0	n/a	n/a	2
362.249	0.0	target	6	362249	a	1	37.0	1	0.4158532	2
362.532	0.5	BAD keypress	2	362532	n/a	n/a	n/a	n/a	n/a	n/a
362.782	0.0	keypress	4	362782	n/a	n/a	n/a	n/a	n/a	n/a
364.515	0.0	nontarget	5	364515	k	0	45.0	n/a	n/a	2
366.648	0.0	nontarget	5	366648	i	0	25.0	n/a	n/a	2
369.082	0.0	nontarget	5	369082	ü	0	43.0	n/a	n/a	2
371.532	0.0	nontarget	5	371532	x	0	44.0	n/a	n/a	2
373.632	0.0	nontarget	5	373632	n	0	23.0	n/a	n/a	2
375.848	0.0	target	6	375848	n	1	30.0	1	0.3834245	2
376.048	0.5	BAD keypress	2	376048	n/a	n/a	n/a	n/a	n/a	n/a
376.298	0.0	keypress	4	376298	n/a	n/a	n/a	n/a	n/a	n/a
378.098	0.0	target	6	378098	f	1	48.0	1	0.4373825	2
378.415	0.5	BAD keypress	2	378415	n/a	n/a	n/a	n/a	n/a	n/a
378.665	0.0	keypress	4	378665	n/a	n/a	n/a	n/a	n/a	n/a
380.198	0.0	nontarget	5	380198	z	0	33.0	n/a	n/a	2
382.381	0.0	nontarget	5	382381	y	0	28.0	n/a	n/a	2
384.498	0.0	nontarget	5	384498	ü	0	24.0	n/a	n/a	2
386.464	0.0	nontarget	5	386464	u	0	15.0	n/a	n/a	2
388.881	0.0	target	6	388881	e	1	42.0	1	0.3898349	2
389.098	0.5	BAD keypress	2	389098	n/a	n/a	n/a	n/a	n/a	n/a
389.348	0.0	keypress	4	389348	n/a	n/a	n/a	n/a	n/a	n/a
391.064	0.0	nontarget	5	391064	j	0	43.0	n/a	n/a	2
393.014	0.0	nontarget	5	393014	n	0	14.0	n/a	n/a	2
395.164	0.0	nontarget	5	395164	y	0	23.0	n/a	n/a	2
397.514	0.0	nontarget	5	397514	m	0	38.0	n/a	n/a	2
399.83	0.0	nontarget	5	399830	b	0	36.0	n/a	n/a	2
402.18	0.0	nontarget	5	402180	q	0	38.0	n/a	n/a	2
404.163	0.0	nontarget	5	404163	t	0	16.0	n/a	n/a	2
406.297	0.0	target	6	406297	j	1	25.0	1	0.6047653	2
406.763	0.5	BAD keypress	2	406763	n/a	n/a	n/a	n/a	n/a	n/a
407.013	0.0	keypress	4	407013	n/a	n/a	n/a	n/a	n/a	n/a
408.413	0.0	nontarget	5	408413	n	0	25.0	n/a	n/a	2
410.93	0.0	nontarget	5	410930	h	0	48.0	n/a	n/a	2
413.063	0.0	nontarget	5	413063	u	0	25.0	n/a	n/a	2
415.38	0.0	nontarget	5	415380	d	0	36.0	n/a	n/a	2
417.413	0.0	nontarget	5	417413	e	0	19.0	n/a	n/a	2
419.646	0.0	nontarget	5	419646	a	0	31.0	n/a	n/a	2
422.179	0.0	target	6	422179	h	1	49.0	1	0.3691284	2
422.396	0.5	BAD keypress	2	422396	n/a	n/a	n/a	n/a	n/a	n/a
422.646	0.0	keypress	4	422646	n/a	n/a	n/a	n/a	n/a	n/a
424.346	0.0	nontarget	5	424346	ß	0	43.0	n/a	n/a	2
426.696	0.0	nontarget	5	426696	u	0	38.0	n/a	n/a	2
428.929	0.0	nontarget	5	428929	o	0	31.0	n/a	n/a	2
431.312	0.0	nontarget	5	431312	ü	0	40.0	n/a	n/a	2
433.379	0.0	nontarget	5	433379	y	0	21.0	n/a	n/a	2
435.595	0.0	nontarget	5	435595	z	0	30.0	n/a	n/a	2
437.929	0.0	nontarget	5	437929	s	0	37.0	n/a	n/a	2
440.412	0.0	nontarget	5	440412	j	0	46.0	n/a	n/a	2
442.412	0.0	target	6	442412	l	1	17.0	1	0.4072591	2
442.679	0.5	BAD keypress	2	442679	n/a	n/a	n/a	n/a	n/a	n/a
442.929	0.0	keypress	4	442929	n/a	n/a	n/a	n/a	n/a	n/a
444.712	0.0	nontarget	5	444712	d	0	48.0	n/a	n/a	2
447.095	0.0	nontarget	5	447095	ö	0	40.0	n/a	n/a	2
449.228	0.0	nontarget	5	449228	e	0	25.0	n/a	n/a	2
451.761	0.0	target	6	451761	g	1	49.0	1	0.4330502	2
452.028	0.5	BAD keypress	2	452028	n/a	n/a	n/a	n/a	n/a	n/a
452.278	0.0	keypress	4	452278	n/a	n/a	n/a	n/a	n/a	n/a
453.711	0.0	nontarget	5	453711	d	0	27.0	n/a	n/a	2
456.111	0.0	nontarget	5	456111	b	0	41.0	n/a	n/a	2
458.194	0.0	nontarget	5	458194	u	0	22.0	n/a	n/a	2
460.544	0.0	target	6	460544	f	1	38.0	1	0.4014848	2
460.761	0.5	BAD keypress	2	460761	n/a	n/a	n/a	n/a	n/a	n/a
461.011	0.0	keypress	4	461011	n/a	n/a	n/a	n/a	n/a	n/a
462.778	0.0	nontarget	5	462778	z	0	47.0	n/a	n/a	2
465.061	0.0	nontarget	5	465061	t	0	34.0	n/a	n/a	2
467.294	0.0	nontarget	5	467294	x	0	31.0	n/a	n/a	2
469.361	0.0	nontarget	5	469361	ä	0	21.0	n/a	n/a	2
471.877	0.0	target	6	471877	l	1	48.0	1	0.3639243	2
472.094	0.5	BAD keypress	2	472094	n/a	n/a	n/a	n/a	n/a	n/a
472.344	0.0	keypress	4	472344	n/a	n/a	n/a	n/a	n/a	n/a
473.877	0.0	nontarget	5	473877	o	0	33.0	n/a	n/a	2
476.11	0.0	nontarget	5	476110	i	0	31.0	n/a	n/a	2
478.244	0.0	target	6	478244	n	1	25.0	1	0.4450203	2
478.527	0.5	BAD keypress	2	478527	n/a	n/a	n/a	n/a	n/a	n/a
478.777	0.0	keypress	4	478777	n/a	n/a	n/a	n/a	n/a	n/a
480.243	0.0	nontarget	5	480243	m	0	29.0	n/a	n/a	2
482.46	0.0	nontarget	5	482460	h	0	30.0	n/a	n/a	2
484.627	0.0	nontarget	5	484627	d	0	27.0	n/a	n/a	2
487.143	0.0	nontarget	5	487143	l	0	48.0	n/a	n/a	2
489.543	0.0	nontarget	5	489543	c	0	41.0	n/a	n/a	2
491.643	0.0	nontarget	5	491643	e	0	23.0	n/a	n/a	2
492.743	24.41500000000002	BAD_break	3	492743	n/a	n/a	n/a	n/a	n/a	n/a
517.408	0.5	BAD keypress	2	517408	n/a	n/a	n/a	n/a	n/a	n/a
517.658	0.0	keypress	4	517658	n/a	n/a	n/a	n/a	n/a	n/a
519.242	0.0	nontarget	5	519242	y	0	37.0	n/a	n/a	3
521.292	0.0	nontarget	5	521292	u	0	20.0	n/a	n/a	3
523.558	0.0	nontarget	5	523558	ä	0	33.0	n/a	n/a	3
525.625	0.0	nontarget	5	525625	p	0	21.0	n/a	n/a	3
528.041	0.0	nontarget	5	528041	f	0	42.0	n/a	n/a	3
529.991	0.0	nontarget	5	529991	n	0	14.0	n/a	n/a	3
532.241	0.0	nontarget	5	532241	r	0	32.0	n/a	n/a	3
534.691	0.0	target	6	534691	i	1	44.0	1	0.4098905	3
534.941	0.5	BAD keypress	2	534941	n/a	n/a	n/a	n/a	n/a	n/a
535.191	0.0	keypress	4	535191	n/a	n/a	n/a	n/a	n/a	n/a
536.841	0.0	nontarget	5	536841	v	0	40.0	n/a	n/a	3
538.791	0.0	nontarget	5	538791	ß	0	14.0	n/a	n/a	3
541.224	0.0	nontarget	5	541224	z	0	43.0	n/a	n/a	3
543.391	0.0	nontarget	5	543391	k	0	27.0	n/a	n/a	3
545.857	0.0	nontarget	5	545857	ö	0	45.0	n/a	n/a	3
548.024	0.0	nontarget	5	548024	r	0	27.0	n/a	n/a	3
550.307	0.0	nontarget	5	550307	t	0	34.0	n/a	n/a	3
552.474	0.0	nontarget	5	552474	u	0	27.0	n/a	n/a	3
554.507	0.0	nontarget	5	554507	l	0	19.0	n/a	n/a	3
556.923	0.0	nontarget	5	556923	k	0	42.0	n/a	n/a	3
559.357	0.0	nontarget	5	559357	n	0	43.0	n/a	n/a	3
561.54	0.0	nontarget	5	561540	f	0	28.0	n/a	n/a	3
563.856	0.0	nontarget	5	563856	ü	0	36.0	n/a	n/a	3
566.306	0.0	nontarget	5	566306	x	0	44.0	n/a	n/a	3
568.84	0.0	nontarget	5	568840	w	0	49.0	n/a	n/a	3
570.889	0.0	nontarget	5	570889	k	0	20.0	n/a	n/a	3
573.373	0.0	nontarget	5	573373	ß	0	46.0	n/a	n/a	3
575.356	0.0	nontarget	5	575356	t	0	16.0	n/a	n/a	3
577.889	0.0	target	6	577889	y	1	49.0	1	0.3928563	3
578.139	0.5	BAD keypress	2	578139	n/a	n/a	n/a	n/a	n/a	n/a
578.389	0.0	keypress	4	578389	n/a	n/a	n/a	n/a	n/a	n/a
579.789	0.0	nontarget	5	579789	y	0	25.0	n/a	n/a	3
582.172	0.0	nontarget	5	582172	h	0	40.0	n/a	n/a	3
584.539	0.0	nontarget	5	584539	r	0	39.0	n/a	n/a	3
586.789	0.0	nontarget	5	586789	s	0	32.0	n/a	n/a	3
588.939	0.0	nontarget	5	588939	k	0	26.0	n/a	n/a	3
591.389	0.0	nontarget	5	591389	p	0	44.0	n/a	n/a	3
593.738	0.0	target	6	593738	s	1	38.0	1	0.4464922	3
594.038	0.5	BAD keypress	2	594038	n/a	n/a	n/a	n/a	n/a	n/a
594.288	0.0	keypress	4	594288	n/a	n/a	n/a	n/a	n/a	n/a
595.555	0.0	nontarget	5	595555	o	0	17.0	n/a	n/a	3
597.888	0.0	nontarget	5	597888	ä	0	37.0	n/a	n/a	3
600.421	0.0	nontarget	5	600421	j	0	49.0	n/a	n/a	3
602.605	0.0	target	6	602605	g	1	28.0	1	0.4435907	3
602.905	0.5	BAD keypress	2	602905	n/a	n/a	n/a	n/a	n/a	n/a
603.155	0.0	keypress	4	603155	n/a	n/a	n/a	n/a	n/a	n/a
604.921	0.0	target	6	604921	w	1	47.0	1	0.4948766	3
605.271	0.5	BAD keypress	2	605271	n/a	n/a	n/a	n/a	n/a	n/a
605.521	0.0	keypress	4	605521	n/a	n/a	n/a	n/a	n/a	n/a
607.071	0.0	target	6	607071	ä	1	34.0	1	0.4088908	3
607.321	0.5	BAD keypress	2	607321	n/a	n/a	n/a	n/a	n/a	n/a
607.571	0.0	keypress	4	607571	n/a	n/a	n/a	n/a	n/a	n/a
609.271	0.0	nontarget	5	609271	b	0	43.0	n/a	n/a	3
611.671	0.0	nontarget	5	611671	z	0	41.0	n/a	n/a	3
614.221	0.0	target	6	614221	x	1	50.0	1	0.4106521	3
614.471	0.5	BAD keypress	2	614471	n/a	n/a	n/a	n/a	n/a	n/a
614.721	0.0	keypress	4	614721	n/a	n/a	n/a	n/a	n/a	n/a
616.371	0.0	nontarget	5	616371	f	0	40.0	n/a	n/a	3
618.921	0.0	nontarget	5	618921	ß	0	50.0	n/a	n/a	3
621.471	0.0	nontarget	5	621471	y	0	50.0	n/a	n/a	3
624.004	0.0	target	6	624004	i	1	49.0	1	0.4191663	3
624.27	0.5	BAD keypress	2	624270	n/a	n/a	n/a	n/a	n/a	n/a
624.52	0.0	keypress	4	624520	n/a	n/a	n/a	n/a	n/a	n/a
626.27	0.0	nontarget	5	626270	j	0	46.0	n/a	n/a	3
628.704	0.0	nontarget	5	628704	q	0	43.0	n/a	n/a	3
631.17	0.0	nontarget	5	631170	ß	0	45.0	n/a	n/a	3
633.637	0.0	nontarget	5	633637	a	0	45.0	n/a	n/a	3
636.02	0.0	nontarget	5	636020	h	0	40.0	n/a	n/a	3
638.17	0.0	nontarget	5	638170	t	0	26.0	n/a	n/a	3
640.32	0.0	nontarget	5	640320	s	0	26.0	n/a	n/a	3
642.42	0.0	nontarget	5	642420	w	0	23.0	n/a	n/a	3
644.919	0.0	nontarget	5	644919	l	0	47.0	n/a	n/a	3
647.303	0.0	nontarget	5	647303	i	0	40.0	n/a	n/a	3
649.603	0.0	nontarget	5	649603	m	0	35.0	n/a	n/a	3
651.803	0.0	target	6	651803	i	1	29.0	1	0.4265239	3
652.103	0.5	BAD keypress	2	652103	n/a	n/a	n/a	n/a	n/a	n/a
652.353	0.0	keypress	4	652353	n/a	n/a	n/a	n/a	n/a	n/a
653.636	0.0	nontarget	5	653636	y	0	18.0	n/a	n/a	3
656.019	0.0	nontarget	5	656019	p	0	40.0	n/a	n/a	3
658.502	0.0	nontarget	5	658502	x	0	46.0	n/a	n/a	3
660.602	0.0	nontarget	5	660602	j	0	23.0	n/a	n/a	3
662.585	0.0	nontarget	5	662585	o	0	16.0	n/a	n/a	3
664.952	0.0	target	6	664952	r	1	39.0	1	0.4122475	3
665.252	0.5	BAD keypress	2	665252	n/a	n/a	n/a	n/a	n/a	n/a
665.502	0.0	keypress	4	665502	n/a	n/a	n/a	n/a	n/a	n/a
666.802	0.0	nontarget	5	666802	t	0	19.0	n/a	n/a	3
667.902	19.48199999999997	BAD_break	3	667902	n/a	n/a	n/a	n/a	n/a	n/a
687.884	0.0	nontarget	5	687884	ö	0	38.0	n/a	n/a	4
690.184	0.0	nontarget	5	690184	ß	0	35.0	n/a	n/a	4
692.551	0.0	target	6	692551	z	1	39.0	1	0.363574	4
692.784	0.5	BAD keypress	2	692784	n/a	n/a	n/a	n/a	n/a	n/a
693.034	0.0	keypress	4	693034	n/a	n/a	n/a	n/a	n/a	n/a
694.484	0.0	nontarget	5	694484	z	0	28.0	n/a	n/a	4
696.434	0.0	nontarget	5	696434	j	0	14.0	n/a	n/a	4
698.717	0.0	nontarget	5	698717	i	0	34.0	n/a	n/a	4
701.117	0.0	nontarget	5	701117	a	0	41.0	n/a	n/a	4
703.417	0.0	nontarget	5	703417	ö	0	35.0	n/a	n/a	4
705.583	0.0	nontarget	5	705583	d	0	27.0	n/a	n/a	4
707.667	0.0	nontarget	5	707667	c	0	22.0	n/a	n/a	4
709.633	0.0	nontarget	5	709633	j	0	15.0	n/a	n/a	4
711.633	0.0	nontarget	5	711633	t	0	17.0	n/a	n/a	4
714.066	0.0	nontarget	5	714066	p	0	43.0	n/a	n/a	4
716.183	0.0	nontarget	5	716183	b	0	24.0	n/a	n/a	4
718.566	0.0	nontarget	5	718566	o	0	40.0	n/a	n/a	4
720.849	0.0	target	6	720849	r	1	34.0	1	0.4148541	4
721.1	0.5	BAD keypress	2	721100	n/a	n/a	n/a	n/a	n/a	n/a
721.35	0.0	keypress	4	721350	n/a	n/a	n/a	n/a	n/a	n/a
722.849	0.0	target	6	722849	d	1	31.0	1	0.5108066	4
723.233	0.5	BAD keypress	2	723233	n/a	n/a	n/a	n/a	n/a	n/a
723.483	0.0	keypress	4	723483	n/a	n/a	n/a	n/a	n/a	n/a
724.916	0.0	nontarget	5	724916	w	0	26.0	n/a	n/a	4
727.066	0.0	target	6	727066	h	1	26.0	1	0.3901265	4
727.333	0.5	BAD keypress	2	727333	n/a	n/a	n/a	n/a	n/a	n/a
727.583	0.0	keypress	4	727583	n/a	n/a	n/a	n/a	n/a	n/a
728.849	0.0	nontarget	5	728849	e	0	17.0	n/a	n/a	4
731.116	0.0	nontarget	5	731116	q	0	33.0	n/a	n/a	4
733.649	0.0	nontarget	5	733649	ß	0	49.0	n/a	n/a	4
736.199	0.0	target	6	736199	l	1	50.0	1	0.4565463	4
736.499	0.5	BAD keypress	2	736499	n/a	n/a	n/a	n/a	n/a	n/a
736.749	0.0	keypress	4	736749	n/a	n/a	n/a	n/a	n/a	n/a
737.982	0.0	nontarget	5	737982	t	0	15.0	n/a	n/a	4
739.982	0.0	nontarget	5	739982	ü	0	17.0	n/a	n/a	4
741.932	0.0	nontarget	5	741932	p	0	14.0	n/a	n/a	4
743.948	0.0	nontarget	5	743948	q	0	18.0	n/a	n/a	4
746.032	0.0	nontarget	5	746032	f	0	22.0	n/a	n/a	4
748.498	0.0	nontarget	5	748498	l	0	45.0	n/a	n/a	4
750.848	0.0	nontarget	5	750848	y	0	38.0	n/a	n/a	4
753.298	0.0	nontarget	5	753298	s	0	44.0	n/a	n/a	4
755.831	0.0	target	6	755831	n	1	49.0	1	0.4227951	4
756.065	0.5	BAD keypress	2	756065	n/a	n/a	n/a	n/a	n/a	n/a
756.315	0.0	keypress	4	756315	n/a	n/a	n/a	n/a	n/a	n/a
757.631	0.0	nontarget	5	757631	k	0	20.0	n/a	n/a	4
759.631	0.0	nontarget	5	759631	o	0	17.0	n/a	n/a	4
761.798	0.0	nontarget	5	761798	f	0	27.0	n/a	n/a	4
763.981	0.0	nontarget	5	763981	v	0	28.0	n/a	n/a	4
765.997	0.0	target	6	765997	m	1	18.0	1	0.4798876	4
766.281	0.5	BAD keypress	2	766281	n/a	n/a	n/a	n/a	n/a	n/a
766.531	0.0	keypress	4	766531	n/a	n/a	n/a	n/a	n/a	n/a
768.297	0.0	nontarget	5	768297	l	0	47.0	n/a	n/a	4
770.247	0.0	nontarget	5	770247	e	0	14.0	n/a	n/a	4
772.347	0.0	nontarget	5	772347	ü	0	23.0	n/a	n/a	4
774.53	0.0	nontarget	5	774530	ß	0	28.0	n/a	n/a	4
776.98	0.0	nontarget	5	776980	b	0	44.0	n/a	n/a	4
779.38	0.0	target	6	779380	r	1	41.0	1	0.4242333	4
779.647	0.5	BAD keypress	2	779647	n/a	n/a	n/a	n/a	n/a	n/a
779.897	0.0	keypress	4	779897	n/a	n/a	n/a	n/a	n/a	n/a
781.363	0.0	nontarget	5	781363	ö	0	29.0	n/a	n/a	4
783.613	0.0	nontarget	5	783613	g	0	32.0	n/a	n/a	4
785.88	0.0	nontarget	5	785880	a	0	33.0	n/a	n/a	4
788.063	0.0	nontarget	5	788063	s	0	28.0	n/a	n/a	4
790.096	0.0	nontarget	5	790096	j	0	19.0	n/a	n/a	4
792.313	0.0	nontarget	5	792313	e	0	30.0	n/a	n/a	4
794.696	0.0	nontarget	5	794696	c	0	40.0	n/a	n/a	4
796.679	0.0	nontarget	5	796679	l	0	16.0	n/a	n/a	4
798.829	0.0	nontarget	5	798829	i	0	26.0	n/a	n/a	4
800.996	0.0	nontarget	5	800996	s	0	27.0	n/a	n/a	4
803.212	0.0	target	6	803212	ä	1	30.0	1	0.4302706	4
803.479	0.5	BAD keypress	2	803479	n/a	n/a	n/a	n/a	n/a	n/a
803.729	0.0	keypress	4	803729	n/a	n/a	n/a	n/a	n/a	n/a
805.396	0.0	nontarget	5	805396	j	0	41.0	n/a	n/a	4
807.729	0.0	nontarget	5	807729	t	0	37.0	n/a	n/a	4
810.246	0.0	nontarget	5	810246	a	0	48.0	n/a	n/a	4
812.662	0.0	nontarget	5	812662	q	0	42.0	n/a	n/a	4
814.862	0.0	nontarget	5	814862	r	0	29.0	n/a	n/a	4
817.295	0.0	nontarget	5	817295	b	0	43.0	n/a	n/a	4
819.345	0.0	target	6	819345	d	1	20.0	1	0.4245383	4
819.612	0.5	BAD keypress	2	819612	n/a	n/a	n/a	n/a	n/a	n/a
819.862	0.0	keypress	4	819862	n/a	n/a	n/a	n/a	n/a	n/a
821.545	0.0	target	6	821545	q	1	42.0	1	0.4645577	4
821.862	0.5	BAD keypress	2	821862	n/a	n/a	n/a	n/a	n/a	n/a
822.112	0.0	keypress	4	822112	n/a	n/a	n/a	n/a	n/a	n/a
823.712	0.0	target	6	823712	m	1	37.0	1	0.3777607	4
823.928	0.5	BAD keypress	2	823928	n/a	n/a	n/a	n/a	n/a	n/a
824.178	0.0	keypress	4	824178	n/a	n/a	n/a	n/a	n/a	n/a
825.478	0.0	nontarget	5	825478	r	0	19.0	n/a	n/a	4
827.695	0.0	nontarget	5	827695	i	0	30.0	n/a	n/a	4
830.145	0.0	target	6	830145	e	1	44.0	1	0.3603456	4
830.345	0.5	BAD keypress	2	830345	n/a	n/a	n/a	n/a	n/a	n/a
830.595	0.0	keypress	4	830595	n/a	n/a	n/a	n/a	n/a	n/a
831.695	39.88099999999997	BAD_break	3	831695	n/a	n/a	n/a	n/a	n/a	n/a
872.076	0.0	nontarget	5	872076	y	0	15.0	n/a	n/a	5
874.359	0.0	nontarget	5	874359	c	0	34.0	n/a	n/a	5
876.693	0.0	target	6	876693	i	1	37.0	1	0.4012248	5
876.976	0.5	BAD keypress	2	876976	n/a	n/a	n/a	n/a	n/a	n/a
877.226	0.0	keypress	4	877226	n/a	n/a	n/a	n/a	n/a	n/a
878.676	0.0	nontarget	5	878676	s	0	28.0	n/a	n/a	5
880.976	0.0	nontarget	5	880976	b	0	35.0	n/a	n/a	5
883.292	0.0	nontarget	5	883292	m	0	36.0	n/a	n/a	5
885.759	0.0	target	6	885759	f	1	45.0	1	0.3744466	5
886.009	0.5	BAD keypress	2	886009	n/a	n/a	n/a	n/a	n/a	n/a
886.259	0.0	keypress	4	886259	n/a	n/a	n/a	n/a	n/a	n/a
887.509	0.0	target	6	887509	i	1	16.0	1	0.4163079	5
887.809	0.5	BAD keypress	2	887809	n/a	n/a	n/a	n/a	n/a	n/a
888.059	0.0	keypress	4	888059	n/a	n/a	n/a	n/a	n/a	n/a
889.675	0.0	nontarget	5	889675	i	0	38.0	n/a	n/a	5
891.759	0.0	nontarget	5	891759	o	0	22.0	n/a	n/a	5
894.025	0.0	target	6	894025	ä	1	33.0	1	0.4275648	5
894.292	0.5	BAD keypress	2	894292	n/a	n/a	n/a	n/a	n/a	n/a
894.542	0.0	keypress	4	894542	n/a	n/a	n/a	n/a	n/a	n/a
895.925	0.0	nontarget	5	895925	u	0	24.0	n/a	n/a	5
898.458	0.0	nontarget	5	898458	ü	0	49.0	n/a	n/a	5
900.642	0.0	nontarget	5	900642	a	0	28.0	n/a	n/a	5
902.958	0.0	nontarget	5	902958	m	0	36.0	n/a	n/a	5
905.141	0.0	nontarget	5	905141	x	0	28.0	n/a	n/a	5
907.091	0.0	nontarget	5	907091	n	0	14.0	n/a	n/a	5
909.591	0.0	nontarget	5	909591	u	0	47.0	n/a	n/a	5
911.924	0.0	nontarget	5	911924	y	0	37.0	n/a	n/a	5
914.041	0.0	nontarget	5	914041	ß	0	24.0	n/a	n/a	5
916.241	0.0	nontarget	5	916241	f	0	29.0	n/a	n/a	5
918.624	0.0	nontarget	5	918624	h	0	40.0	n/a	n/a	5
920.757	0.0	target	6	920757	z	1	25.0	1	0.4455683	5
921.041	0.5	BAD keypress	2	921041	n/a	n/a	n/a	n/a	n/a	n/a
921.291	0.0	keypress	4	921291	n/a	n/a	n/a	n/a	n/a	n/a
923.041	0.0	target	6	923041	s	1	46.0	1	0.4022139	5
923.274	0.5	BAD keypress	2	923274	n/a	n/a	n/a	n/a	n/a	n/a
923.524	0.0	keypress	4	923524	n/a	n/a	n/a	n/a	n/a	n/a
924.957	0.0	nontarget	5	924957	u	0	27.0	n/a	n/a	5
926.94	0.0	nontarget	5	926940	g	0	16.0	n/a	n/a	5
929.257	0.0	nontarget	5	929257	v	0	36.0	n/a	n/a	5
931.674	0.0	nontarget	5	931674	ß	0	42.0	n/a	n/a	5
934.173	0.0	nontarget	5	934173	i	0	47.0	n/a	n/a	5
936.723	0.0	nontarget	5	936723	ö	0	50.0	n/a	n/a	5
938.923	0.0	nontarget	5	938923	d	0	29.0	n/a	n/a	5
941.29	0.0	nontarget	5	941290	a	0	39.0	n/a	n/a	5
943.473	0.0	nontarget	5	943473	t	0	28.0	n/a	n/a	5
945.823	0.0	nontarget	5	945823	s	0	38.0	n/a	n/a	5
947.939	0.0	nontarget	5	947939	ü	0	24.0	n/a	n/a	5
950.073	0.0	nontarget	5	950073	q	0	25.0	n/a	n/a	5
952.139	0.0	target	6	952139	ü	1	21.0	1	0.4374591	5
952.423	0.5	BAD keypress	2	952423	n/a	n/a	n/a	n/a	n/a	n/a
952.673	0.0	keypress	4	952673	n/a	n/a	n/a	n/a	n/a	n/a
954.073	0.0	nontarget	5	954073	e	0	25.0	n/a	n/a	5
956.506	0.0	target	6	956506	u	1	43.0	1	0.3906489	5
956.723	0.5	BAD keypress	2	956723	n/a	n/a	n/a	n/a	n/a	n/a
956.973	0.0	keypress	4	956973	n/a	n/a	n/a	n/a	n/a	n/a
958.489	0.0	nontarget	5	958489	p	0	32.0	n/a	n/a	5
960.656	0.0	nontarget	5	960656	v	0	27.0	n/a	n/a	5
962.639	0.0	target	6	962639	g	1	16.0	1	0.4331944	5
962.889	0.5	BAD keypress	2	962889	n/a	n/a	n/a	n/a	n/a	n/a
963.139	0.0	keypress	4	963139	n/a	n/a	n/a	n/a	n/a	n/a
964.472	0.0	nontarget	5	964472	t	0	21.0	n/a	n/a	5
966.555	0.0	target	6	966555	y	1	22.0	1	0.4203992	5
966.805	0.5	BAD keypress	2	966805	n/a	n/a	n/a	n/a	n/a	n/a
967.055	0.0	keypress	4	967055	n/a	n/a	n/a	n/a	n/a	n/a
968.772	0.0	nontarget	5	968772	r	0	44.0	n/a	n/a	5
971.005	0.0	nontarget	5	971005	f	0	31.0	n/a	n/a	5
973.088	0.0	nontarget	5	973088	v	0	22.0	n/a	n/a	5
975.505	0.0	nontarget	5	975505	s	0	42.0	n/a	n/a	5
977.771	0.0	nontarget	5	977771	x	0	33.0	n/a	n/a	5
979.888	0.0	target	6	979888	l	1	24.0	1	0.4468291	5
980.171	0.5	BAD keypress	2	980171	n/a	n/a	n/a	n/a	n/a	n/a
980.421	0.0	keypress	4	980421	n/a	n/a	n/a	n/a	n/a	n/a
981.921	0.0	nontarget	5	981921	ö	0	31.0	n/a	n/a	5
984.338	0.0	nontarget	5	984338	f	0	42.0	n/a	n/a	5
986.471	0.0	nontarget	5	986471	g	0	25.0	n/a	n/a	5
989.004	0.0	target	6	989004	j	1	49.0	1	0.4659326	5
989.288	0.5	BAD keypress	2	989288	n/a	n/a	n/a	n/a	n/a	n/a
989.538	0.0	keypress	4	989538	n/a	n/a	n/a	n/a	n/a	n/a
990.888	0.0	nontarget	5	990888	b	0	22.0	n/a	n/a	5
993.437	0.0	nontarget	5	993437	ä	0	50.0	n/a	n/a	5
995.971	0.0	nontarget	5	995971	d	0	49.0	n/a	n/a	5
998.387	0.0	nontarget	5	998387	p	0	42.0	n/a	n/a	5
1000.454	0.0	nontarget	5	1000454	m	0	21.0	n/a	n/a	5
1002.887	0.0	nontarget	5	1002887	ß	0	43.0	n/a	n/a	5
1005.087	0.0	target	6	1005087	p	1	29.0	1	0.4302205	5
1005.354	0.5	BAD keypress	2	1005354	n/a	n/a	n/a	n/a	n/a	n/a
1005.604	0.0	keypress	4	1005604	n/a	n/a	n/a	n/a	n/a	n/a
1007.187	0.0	target	6	1007187	q	1	36.0	1	0.3942088	5
1007.404	0.5	BAD keypress	2	1007404	n/a	n/a	n/a	n/a	n/a	n/a
1007.654	0.0	keypress	4	1007654	n/a	n/a	n/a	n/a	n/a	n/a
1009.22	0.0	nontarget	5	1009220	j	0	35.0	n/a	n/a	5
1011.753	0.0	nontarget	5	1011753	m	0	49.0	n/a	n/a	5
1013.887	0.0	nontarget	5	1013887	k	0	25.0	n/a	n/a	5
1015.986	0.0	nontarget	5	1015986	x	0	23.0	n/a	n/a	5
1017.086	23.482999999999947	BAD_break	3	1017086	n/a	n/a	n/a	n/a	n/a	n/a
1041.069	0.0	target	6	1041069	j	1	15.0	0	n/a	6
1044.002	0.0	nontarget	5	1044002	n	0	42.0	n/a	n/a	6
1046.318	0.0	target	6	1046318	w	1	36.0	1	0.3799794	6
1046.535	0.5	BAD keypress	2	1046535	n/a	n/a	n/a	n/a	n/a	n/a
1046.785	0.0	keypress	4	1046785	n/a	n/a	n/a	n/a	n/a	n/a
1048.185	0.0	nontarget	5	1048185	r	0	25.0	0	0.3850869	6
1048.185	1.0	BAD incorrect	1	1048185	r	0	25.0	0	0.3850869	6
1048.418	0.5	BAD keypress	2	1048418	n/a	n/a	n/a	n/a	n/a	n/a
1048.668	0.0	keypress	4	1048668	n/a	n/a	n/a	n/a	n/a	n/a
1050.652	0.0	nontarget	5	1050652	c	0	29.0	n/a	n/a	6
1052.668	0.0	nontarget	5	1052668	b	0	18.0	n/a	n/a	6
1054.801	0.0	nontarget	5	1054801	l	0	25.0	n/a	n/a	6
1056.751	0.0	nontarget	5	1056751	s	0	14.0	n/a	n/a	6
1059.235	0.0	target	6	1059235	b	1	46.0	1	0.4229871	6
1059.535	0.5	BAD keypress	2	1059535	n/a	n/a	n/a	n/a	n/a	n/a
1059.785	0.0	keypress	4	1059785	n/a	n/a	n/a	n/a	n/a	n/a
1061.584	0.0	nontarget	5	1061584	r	0	49.0	n/a	n/a	6
1064.084	0.0	nontarget	5	1064084	w	0	47.0	n/a	n/a	6
1066.568	0.0	nontarget	5	1066568	y	0	46.0	n/a	n/a	6
1068.634	0.0	target	6	1068634	t	1	21.0	1	0.4307087	6
1068.918	0.5	BAD keypress	2	1068918	n/a	n/a	n/a	n/a	n/a	n/a
1069.168	0.0	keypress	4	1069168	n/a	n/a	n/a	n/a	n/a	n/a
1070.401	0.0	nontarget	5	1070401	a	0	15.0	n/a	n/a	6
1072.634	0.0	nontarget	5	1072634	e	0	31.0	n/a	n/a	6
1074.867	0.0	nontarget	5	1074867	j	0	31.0	n/a	n/a	6
1077.317	0.0	nontarget	5	1077317	f	0	44.0	n/a	n/a	6
1079.834	0.0	nontarget	5	1079834	h	0	48.0	n/a	n/a	6
1082.1	0.0	nontarget	5	1082100	p	0	33.0	n/a	n/a	6
1084.3	0.0	nontarget	5	1084300	t	0	29.0	n/a	n/a	6
1086.333	0.0	nontarget	5	1086333	u	0	19.0	n/a	n/a	6
1088.617	0.0	nontarget	5	1088617	ü	0	34.0	n/a	n/a	6
1090.667	0.0	target	6	1090667	f	1	20.0	1	0.4128472	6
1090.917	0.5	BAD keypress	2	1090917	n/a	n/a	n/a	n/a	n/a	n/a
1091.167	0.0	keypress	4	1091167	n/a	n/a	n/a	n/a	n/a	n/a
1092.95	0.0	nontarget	5	1092950	i	0	48.0	n/a	n/a	6
1095.4	0.0	nontarget	5	1095400	w	0	44.0	n/a	n/a	6
1097.75	0.0	nontarget	5	1097750	c	0	38.0	n/a	n/a	6
1100.083	0.0	nontarget	5	1100083	g	0	37.0	n/a	n/a	6
1102.183	0.0	nontarget	5	1102183	y	0	23.0	n/a	n/a	6
1104.683	0.0	nontarget	5	1104683	w	0	47.0	n/a	n/a	6
1107.199	0.0	nontarget	5	1107199	j	0	48.0	n/a	n/a	6
1109.732	0.0	nontarget	5	1109732	e	0	49.0	n/a	n/a	6
1111.982	0.0	nontarget	5	1111982	ä	0	32.0	n/a	n/a	6
1114.365	0.0	nontarget	5	1114365	ß	0	40.0	n/a	n/a	6
1116.632	0.0	nontarget	5	1116632	n	0	33.0	n/a	n/a	6
1118.699	0.0	nontarget	5	1118699	h	0	21.0	n/a	n/a	6
1120.749	0.0	nontarget	5	1120749	ä	0	20.0	n/a	n/a	6
1123.098	0.0	nontarget	5	1123098	ö	0	38.0	n/a	n/a	6
1125.448	0.0	nontarget	5	1125448	r	0	38.0	n/a	n/a	6
1127.598	0.0	target	6	1127598	ü	1	26.0	1	0.4386899	6
1127.882	0.5	BAD keypress	2	1127882	n/a	n/a	n/a	n/a	n/a	n/a
1128.132	0.0	keypress	4	1128132	n/a	n/a	n/a	n/a	n/a	n/a
1129.448	0.0	target	6	1129448	d	1	20.0	1	0.4765316	6
1129.765	0.5	BAD keypress	2	1129765	n/a	n/a	n/a	n/a	n/a	n/a
1130.015	0.0	keypress	4	1130015	n/a	n/a	n/a	n/a	n/a	n/a
1131.231	0.0	nontarget	5	1131231	w	0	14.0	n/a	n/a	6
1133.315	0.0	target	6	1133315	k	1	22.0	1	0.4178552	6
1133.565	0.5	BAD keypress	2	1133565	n/a	n/a	n/a	n/a	n/a	n/a
1133.815	0.0	keypress	4	1133815	n/a	n/a	n/a	n/a	n/a	n/a
1135.181	0.0	nontarget	5	1135181	d	0	23.0	n/a	n/a	6
1137.148	0.0	nontarget	5	1137148	ü	0	15.0	n/a	n/a	6
1139.598	0.0	nontarget	5	1139598	ä	0	44.0	n/a	n/a	6
1142.148	0.0	nontarget	5	1142148	i	0	50.0	n/a	n/a	6
1144.348	0.0	nontarget	5	1144348	j	0	29.0	n/a	n/a	6
1146.597	0.0	nontarget	5	1146597	b	0	32.0	n/a	n/a	6
1148.731	0.0	nontarget	5	1148731	f	0	25.0	n/a	n/a	6
1150.814	0.0	nontarget	5	1150814	a	0	22.0	n/a	n/a	6
1153.164	0.0	nontarget	5	1153164	i	0	38.0	n/a	n/a	6
1155.614	0.0	nontarget	5	1155614	z	0	44.0	n/a	n/a	6
1157.847	0.0	nontarget	5	1157847	q	0	31.0	n/a	n/a	6
1160.28	0.0	nontarget	5	1160280	v	0	43.0	n/a	n/a	6
1162.58	0.0	target	6	1162580	k	1	35.0	1	0.4144173	6
1162.83	0.5	BAD keypress	2	1162830	n/a	n/a	n/a	n/a	n/a	n/a
1163.08	0.0	keypress	4	1163080	n/a	n/a	n/a	n/a	n/a	n/a
1164.38	0.0	target	6	1164380	s	1	19.0	1	0.470388	6
1164.68	0.5	BAD keypress	2	1164680	n/a	n/a	n/a	n/a	n/a	n/a
1164.93	0.0	keypress	4	1164930	n/a	n/a	n/a	n/a	n/a	n/a
1166.363	0.0	nontarget	5	1166363	m	0	27.0	n/a	n/a	6
1168.746	0.0	nontarget	5	1168746	f	0	40.0	n/a	n/a	6
1170.996	0.0	nontarget	5	1170996	x	0	32.0	n/a	n/a	6
1173.23	0.0	target	6	1173230	ä	1	31.0	1	0.4362298	6
1173.496	0.5	BAD keypress	2	1173496	n/a	n/a	n/a	n/a	n/a	n/a
1173.746	0.0	keypress	4	1173746	n/a	n/a	n/a	n/a	n/a	n/a
1175.28	0.0	nontarget	5	1175280	c	0	33.0	n/a	n/a	6
1177.596	0.0	nontarget	5	1177596	w	0	36.0	n/a	n/a	6
1179.846	0.0	nontarget	5	1179846	ü	0	32.0	n/a	n/a	6
1182.279	0.0	nontarget	5	1182279	k	0	43.0	n/a	n/a	6
1184.246	0.0	nontarget	5	1184246	j	0	15.0	n/a	n/a	6
1186.462	0.0	nontarget	5	1186462	g	0	30.0	n/a	n/a	6
1187.562	70.981	BAD_break	3	1187562	n/a	n/a	n/a	n/a	n/a	n/a
1259.043	0.0	nontarget	5	1259043	o	0	46.0	n/a	n/a	7
1261.109	0.0	nontarget	5	1261109	h	0	21.0	n/a	n/a	7
1263.342	0.0	target	6	1263342	c	1	31.0	1	0.4133896	7
1263.592	0.5	BAD keypress	2	1263592	n/a	n/a	n/a	n/a	n/a	n/a
1263.842	0.0	keypress	4	1263842	n/a	n/a	n/a	n/a	n/a	n/a
1265.409	0.0	nontarget	5	1265409	u	0	35.0	n/a	n/a	7
1267.892	0.0	nontarget	5	1267892	y	0	46.0	n/a	n/a	7
1269.942	0.0	nontarget	5	1269942	l	0	20.0	n/a	n/a	7
1272.442	0.0	target	6	1272442	y	1	47.0	1	0.3852573	7
1272.625	0.5	BAD keypress	2	1272625	n/a	n/a	n/a	n/a	n/a	n/a
1272.875	0.0	keypress	4	1272875	n/a	n/a	n/a	n/a	n/a	n/a
1274.542	0.0	nontarget	5	1274542	z	0	41.0	n/a	n/a	7
1276.692	0.0	nontarget	5	1276692	h	0	26.0	n/a	n/a	7
1279.058	0.0	nontarget	5	1279058	r	0	39.0	n/a	n/a	7
1281.525	0.0	nontarget	5	1281525	e	0	45.0	n/a	n/a	7
1284.008	0.0	nontarget	5	1284008	j	0	46.0	n/a	n/a	7
1286.408	0.0	nontarget	5	1286408	ö	0	41.0	n/a	n/a	7
1288.958	0.0	nontarget	5	1288958	ß	0	50.0	n/a	n/a	7
1291.408	0.0	nontarget	5	1291408	o	0	44.0	n/a	n/a	7
1293.591	0.0	nontarget	5	1293591	x	0	28.0	n/a	n/a	7
1295.791	0.0	nontarget	5	1295791	d	0	29.0	n/a	n/a	7
1297.974	0.0	target	6	1297974	b	1	28.0	1	0.4673825	7
1298.241	0.5	BAD keypress	2	1298241	n/a	n/a	n/a	n/a	n/a	n/a
1298.491	0.0	keypress	4	1298491	n/a	n/a	n/a	n/a	n/a	n/a
1300.224	0.0	nontarget	5	1300224	z	0	45.0	n/a	n/a	7
1302.691	0.0	nontarget	5	1302691	ö	0	45.0	n/a	n/a	7
1304.757	0.0	nontarget	5	1304757	k	0	21.0	n/a	n/a	7
1306.99	0.0	nontarget	5	1306990	e	0	31.0	n/a	n/a	7
1309.14	0.0	target	6	1309140	n	1	26.0	1	0.4363369	7
1309.44	0.5	BAD keypress	2	1309440	n/a	n/a	n/a	n/a	n/a	n/a
1309.69	0.0	keypress	4	1309690	n/a	n/a	n/a	n/a	n/a	n/a
1311.357	0.0	target	6	1311357	j	1	41.0	1	0.6035936	7
1311.84	0.5	BAD keypress	2	1311840	n/a	n/a	n/a	n/a	n/a	n/a
1312.09	0.0	keypress	4	1312090	n/a	n/a	n/a	n/a	n/a	n/a
1313.773	0.0	target	6	1313773	c	1	42.0	1	0.3948849	7
1314.04	0.5	BAD keypress	2	1314040	n/a	n/a	n/a	n/a	n/a	n/a
1314.29	0.0	keypress	4	1314290	n/a	n/a	n/a	n/a	n/a	n/a
1315.773	0.0	nontarget	5	1315773	e	0	30.0	n/a	n/a	7
1317.89	0.0	nontarget	5	1317890	ö	0	24.0	n/a	n/a	7
1320.423	0.0	nontarget	5	1320423	p	0	49.0	n/a	n/a	7
1322.49	0.0	nontarget	5	1322490	x	0	21.0	n/a	n/a	7
1324.89	0.0	nontarget	5	1324890	e	0	41.0	n/a	n/a	7
1326.89	0.0	nontarget	5	1326890	y	0	17.0	n/a	n/a	7
1329.356	0.0	nontarget	5	1329356	b	0	45.0	n/a	n/a	7
1331.473	0.0	nontarget	5	1331473	ü	0	24.0	n/a	n/a	7
1333.506	0.0	nontarget	5	1333506	v	0	19.0	n/a	n/a	7
1335.656	0.0	nontarget	5	1335656	x	0	26.0	n/a	n/a	7
1337.689	0.0	nontarget	5	1337689	p	0	19.0	n/a	n/a	7
1339.972	0.0	target	6	1339972	n	1	34.0	1	0.4182042	7
1340.222	0.5	BAD keypress	2	1340222	n/a	n/a	n/a	n/a	n/a	n/a
1340.472	0.0	keypress	4	1340472	n/a	n/a	n/a	n/a	n/a	n/a
1341.822	0.0	nontarget	5	1341822	d	0	22.0	n/a	n/a	7
1344.289	0.0	nontarget	5	1344289	l	0	45.0	n/a	n/a	7
1346.489	0.0	target	6	1346489	p	1	29.0	1	0.4133969	7
1346.739	0.5	BAD keypress	2	1346739	n/a	n/a	n/a	n/a	n/a	n/a
1346.989	0.0	keypress	4	1346989	n/a	n/a	n/a	n/a	n/a	n/a
1348.239	0.0	nontarget	5	1348239	v	0	16.0	n/a	n/a	7
1350.422	0.0	nontarget	5	1350422	e	0	28.0	n/a	n/a	7
1352.805	0.0	nontarget	5	1352805	h	0	40.0	n/a	n/a	7
1355.122	0.0	nontarget	5	1355122	o	0	36.0	n/a	n/a	7
1357.305	0.0	target	6	1357305	y	1	28.0	1	0.4124941	7
1357.572	0.5	BAD keypress	2	1357572	n/a	n/a	n/a	n/a	n/a	n/a
1357.822	0.0	keypress	4	1357822	n/a	n/a	n/a	n/a	n/a	n/a
1359.305	0.0	nontarget	5	1359305	k	0	30.0	n/a	n/a	7
1361.688	0.0	nontarget	5	1361688	c	0	40.0	n/a	n/a	7
1364.238	0.0	nontarget	5	1364238	r	0	50.0	n/a	n/a	7
1366.471	0.0	target	6	1366471	j	1	31.0	1	0.5736679	7
1366.921	0.5	BAD keypress	2	1366921	n/a	n/a	n/a	n/a	n/a	n/a
1367.171	0.0	keypress	4	1367171	n/a	n/a	n/a	n/a	n/a	n/a
1368.688	0.0	target	6	1368688	d	1	32.0	1	0.4209314	7
1368.954	0.5	BAD keypress	2	1368954	n/a	n/a	n/a	n/a	n/a	n/a
1369.204	0.0	keypress	4	1369204	n/a	n/a	n/a	n/a	n/a	n/a
1370.488	0.0	nontarget	5	1370488	s	0	18.0	n/a	n/a	7
1372.438	0.0	nontarget	5	1372438	n	0	14.0	n/a	n/a	7
1374.821	0.0	nontarget	5	1374821	w	0	40.0	n/a	n/a	7
1376.887	0.0	nontarget	5	1376887	l	0	21.0	n/a	n/a	7
1378.854	0.0	nontarget	5	1378854	ü	0	15.0	n/a	n/a	7
1381.087	0.0	target	6	1381087	y	1	31.0	1	0.4045559	7
1381.337	0.5	BAD keypress	2	1381337	n/a	n/a	n/a	n/a	n/a	n/a
1381.587	0.0	keypress	4	1381587	n/a	n/a	n/a	n/a	n/a	n/a
1383.137	0.0	nontarget	5	1383137	d	0	34.0	n/a	n/a	7
1385.32	0.0	nontarget	5	1385320	m	0	28.0	n/a	n/a	7
1387.504	0.0	target	6	1387504	ü	1	28.0	1	0.3877701	7
1387.754	0.5	BAD keypress	2	1387754	n/a	n/a	n/a	n/a	n/a	n/a
1388.004	0.0	keypress	4	1388004	n/a	n/a	n/a	n/a	n/a	n/a
1389.337	0.0	nontarget	5	1389337	ä	0	21.0	n/a	n/a	7
1391.687	0.0	nontarget	5	1391687	y	0	38.0	n/a	n/a	7
1393.67	0.0	nontarget	5	1393670	m	0	16.0	n/a	n/a	7
1395.62	0.0	nontarget	5	1395620	c	0	14.0	n/a	n/a	7
1397.836	0.0	nontarget	5	1397836	q	0	30.0	n/a	n/a	7
1400.203	0.0	nontarget	5	1400203	r	0	39.0	n/a	n/a	7
1402.736	0.0	nontarget	5	1402736	x	0	49.0	n/a	n/a	7
1403.836	108.3789999999999	BAD_break	3	1403836	n/a	n/a	n/a	n/a	n/a	n/a
1512.715	0.0	nontarget	5	1512715	t	0	26.0	n/a	n/a	8
1514.765	0.0	nontarget	5	1514765	p	0	20.0	n/a	n/a	8
1516.781	0.0	nontarget	5	1516781	n	0	18.0	n/a	n/a	8
1518.848	0.0	nontarget	5	1518848	ß	0	21.0	n/a	n/a	8
1521.048	0.0	target	6	1521048	o	1	29.0	1	0.3705229	8
1521.264	0.5	BAD keypress	2	1521264	n/a	n/a	n/a	n/a	n/a	n/a
1521.514	0.0	keypress	4	1521514	n/a	n/a	n/a	n/a	n/a	n/a
1523.281	0.0	nontarget	5	1523281	r	0	47.0	n/a	n/a	8
1525.564	0.0	target	6	1525564	f	1	34.0	1	0.4457603	8
1525.864	0.5	BAD keypress	2	1525864	n/a	n/a	n/a	n/a	n/a	n/a
1526.114	0.0	keypress	4	1526114	n/a	n/a	n/a	n/a	n/a	n/a
1527.381	0.0	nontarget	5	1527381	o	0	17.0	n/a	n/a	8
1529.514	0.0	target	6	1529514	b	1	25.0	1	0.4316119	8
1529.814	0.5	BAD keypress	2	1529814	n/a	n/a	n/a	n/a	n/a	n/a
1530.064	0.0	keypress	4	1530064	n/a	n/a	n/a	n/a	n/a	n/a
1531.364	0.0	nontarget	5	1531364	e	0	19.0	n/a	n/a	8
1533.597	0.0	nontarget	5	1533597	q	0	31.0	n/a	n/a	8
1535.764	0.0	nontarget	5	1535764	ü	0	27.0	n/a	n/a	8
1538.23	0.0	nontarget	5	1538230	i	0	45.0	n/a	n/a	8
1540.247	0.0	target	6	1540247	v	1	18.0	1	0.4502293	8
1540.53	0.5	BAD keypress	2	1540530	n/a	n/a	n/a	n/a	n/a	n/a
1540.78	0.0	keypress	4	1540780	n/a	n/a	n/a	n/a	n/a	n/a
1542.163	0.0	nontarget	5	1542163	v	0	24.0	n/a	n/a	8
1544.18	0.0	nontarget	5	1544180	p	0	18.0	n/a	n/a	8
1546.147	0.0	nontarget	5	1546147	m	0	15.0	n/a	n/a	8
1548.447	0.0	nontarget	5	1548447	n	0	35.0	n/a	n/a	8
1550.63	0.0	target	6	1550630	e	1	28.0	1	0.4344429	8
1550.897	0.5	BAD keypress	2	1550897	n/a	n/a	n/a	n/a	n/a	n/a
1551.147	0.0	keypress	4	1551147	n/a	n/a	n/a	n/a	n/a	n/a
1552.913	0.0	nontarget	5	1552913	u	0	47.0	n/a	n/a	8
1555.03	0.0	nontarget	5	1555030	g	0	24.0	n/a	n/a	8
1557.363	0.0	nontarget	5	1557363	m	0	37.0	n/a	n/a	8
1559.413	0.0	nontarget	5	1559413	r	0	20.0	n/a	n/a	8
1561.829	0.0	nontarget	5	1561829	h	0	42.0	n/a	n/a	8
1564.312	0.0	nontarget	5	1564312	b	0	46.0	n/a	n/a	8
1566.862	0.0	target	6	1566862	m	1	50.0	1	0.4407704	8
1567.179	0.5	BAD keypress	2	1567179	n/a	n/a	n/a	n/a	n/a	n/a
1567.429	0.0	keypress	4	1567429	n/a	n/a	n/a	n/a	n/a	n/a
1569.146	0.0	nontarget	5	1569146	ü	0	44.0	n/a	n/a	8
1571.562	0.0	target	6	1571562	g	1	42.0	1	0.4287043	8
1571.796	0.5	BAD keypress	2	1571796	n/a	n/a	n/a	n/a	n/a	n/a
1572.046	0.0	keypress	4	1572046	n/a	n/a	n/a	n/a	n/a	n/a
1573.312	0.0	nontarget	5	1573312	p	0	17.0	n/a	n/a	8
1575.679	0.0	target	6	1575679	v	1	39.0	1	0.4078808	8
1575.912	0.5	BAD keypress	2	1575912	n/a	n/a	n/a	n/a	n/a	n/a
1576.162	0.0	keypress	4	1576162	n/a	n/a	n/a	n/a	n/a	n/a
1577.729	0.0	nontarget	5	1577729	ä	0	35.0	n/a	n/a	8
1580.195	0.0	nontarget	5	1580195	ü	0	45.0	n/a	n/a	8
1582.312	0.0	nontarget	5	1582312	k	0	24.0	n/a	n/a	8
1584.678	0.0	nontarget	5	1584678	a	0	39.0	n/a	n/a	8
1586.778	0.0	nontarget	5	1586778	u	0	23.0	n/a	n/a	8
1589.228	0.0	nontarget	5	1589228	n	0	44.0	n/a	n/a	8
1591.228	0.0	target	6	1591228	a	1	17.0	1	0.4415425	8
1591.511	0.5	BAD keypress	2	1591511	n/a	n/a	n/a	n/a	n/a	n/a
1591.761	0.0	keypress	4	1591761	n/a	n/a	n/a	n/a	n/a	n/a
1593.328	0.0	nontarget	5	1593328	o	0	35.0	n/a	n/a	8
1595.794	0.0	target	6	1595794	o	1	45.0	1	0.4187572	8
1596.028	0.5	BAD keypress	2	1596028	n/a	n/a	n/a	n/a	n/a	n/a
1596.278	0.0	keypress	4	1596278	n/a	n/a	n/a	n/a	n/a	n/a
1597.644	0.0	nontarget	5	1597644	w	0	23.0	n/a	n/a	8
1599.911	0.0	nontarget	5	1599911	k	0	33.0	n/a	n/a	8
1601.944	0.0	nontarget	5	1601944	o	0	19.0	n/a	n/a	8
1604.027	0.0	nontarget	5	1604027	b	0	22.0	n/a	n/a	8
1606.461	0.0	nontarget	5	1606461	c	0	43.0	n/a	n/a	8
1608.894	0.0	nontarget	5	1608894	v	0	43.0	n/a	n/a	8
1610.894	0.0	nontarget	5	1610894	r	0	17.0	n/a	n/a	8
1612.927	0.0	nontarget	5	1612927	l	0	19.0	n/a	n/a	8
1615.277	0.0	nontarget	5	1615277	ß	0	38.0	n/a	n/a	8
1617.36	0.0	nontarget	5	1617360	b	0	22.0	n/a	n/a	8
1619.393	0.0	nontarget	5	1619393	c	0	19.0	n/a	n/a	8
1621.827	0.0	target	6	1621827	g	1	43.0	1	0.4167513	8
1622.093	0.5	BAD keypress	2	1622093	n/a	n/a	n/a	n/a	n/a	n/a
1622.343	0.0	keypress	4	1622343	n/a	n/a	n/a	n/a	n/a	n/a
1624.16	0.0	nontarget	5	1624160	o	0	50.0	n/a	n/a	8
1626.61	0.0	nontarget	5	1626610	d	0	44.0	n/a	n/a	8
1628.926	0.0	nontarget	5	1628926	q	0	36.0	n/a	n/a	8
1630.893	0.0	nontarget	5	1630893	s	0	15.0	n/a	n/a	8
1633.359	0.0	nontarget	5	1633359	w	0	45.0	n/a	n/a	8
1635.426	0.0	nontarget	5	1635426	f	0	21.0	n/a	n/a	8
1637.809	0.0	nontarget	5	1637809	q	0	40.0	n/a	n/a	8
1639.876	0.0	nontarget	5	1639876	r	0	21.0	n/a	n/a	8
1642.376	0.0	nontarget	5	1642376	l	0	47.0	n/a	n/a	8
1644.776	0.0	nontarget	5	1644776	g	0	41.0	n/a	n/a	8
1646.959	0.0	nontarget	5	1646959	ä	0	28.0	n/a	n/a	8
1649.225	0.0	target	6	1649225	t	1	33.0	1	0.4242056	8
1649.476	0.5	BAD keypress	2	1649476	n/a	n/a	n/a	n/a	n/a	n/a
1649.726	0.0	keypress	4	1649726	n/a	n/a	n/a	n/a	n/a	n/a
1651.042	0.0	nontarget	5	1651042	j	0	20.0	n/a	n/a	8
1653.225	0.0	nontarget	5	1653225	q	0	28.0	n/a	n/a	8
1655.609	0.0	nontarget	5	1655609	v	0	40.0	n/a	n/a	8
1656.709	23.86500000000024	BAD_break	3	1656709	n/a	n/a	n/a	n/a	n/a	n/a
1681.074	0.0	nontarget	5	1681074	w	0	40.0	n/a	n/a	9
1683.091	0.0	nontarget	5	1683091	s	0	18.0	n/a	n/a	9
1685.157	0.0	nontarget	5	1685157	e	0	21.0	n/a	n/a	9
1687.407	0.0	nontarget	5	1687407	g	0	32.0	n/a	n/a	9
1689.757	0.0	target	6	1689757	p	1	38.0	1	0.4178027	9
1690.007	0.5	BAD keypress	2	1690007	n/a	n/a	n/a	n/a	n/a	n/a
1690.257	0.0	keypress	4	1690257	n/a	n/a	n/a	n/a	n/a	n/a
1691.807	0.0	nontarget	5	1691807	b	0	34.0	n/a	n/a	9
1693.957	0.0	nontarget	5	1693957	s	0	26.0	n/a	n/a	9
1695.923	0.0	nontarget	5	1695923	a	0	15.0	n/a	n/a	9
1698.273	0.0	nontarget	5	1698273	r	0	38.0	n/a	n/a	9
1700.707	0.0	nontarget	5	1700707	ä	0	43.0	n/a	n/a	9
1702.656	0.0	nontarget	5	1702656	w	0	14.0	n/a	n/a	9
1705.09	0.0	nontarget	5	1705090	q	0	43.0	n/a	n/a	9
1707.073	0.0	nontarget	5	1707073	ü	0	16.0	n/a	n/a	9
1709.589	0.0	nontarget	5	1709589	c	0	48.0	n/a	n/a	9
1712.073	0.0	nontarget	5	1712073	t	0	46.0	n/a	n/a	9
1714.073	0.0	nontarget	5	1714073	ä	0	17.0	n/a	n/a	9
1716.089	0.0	nontarget	5	1716089	k	0	18.0	n/a	n/a	9
1718.522	0.0	target	6	1718522	z	1	43.0	1	0.4185201	9
1718.739	0.5	BAD keypress	2	1718739	n/a	n/a	n/a	n/a	n/a	n/a
1718.989	0.0	keypress	4	1718989	n/a	n/a	n/a	n/a	n/a	n/a
1720.272	0.0	nontarget	5	1720272	b	0	18.0	n/a	n/a	9
1722.522	0.0	target	6	1722522	f	1	32.0	1	0.4504095	9
1722.806	0.5	BAD keypress	2	1722806	n/a	n/a	n/a	n/a	n/a	n/a
1723.056	0.0	keypress	4	1723056	n/a	n/a	n/a	n/a	n/a	n/a
1724.439	0.0	target	6	1724439	c	1	24.0	1	0.405661	9
1724.689	0.5	BAD keypress	2	1724689	n/a	n/a	n/a	n/a	n/a	n/a
1724.939	0.0	keypress	4	1724939	n/a	n/a	n/a	n/a	n/a	n/a
1726.622	0.0	nontarget	5	1726622	ß	0	42.0	n/a	n/a	9
1729.072	0.0	nontarget	5	1729072	v	0	44.0	n/a	n/a	9
1731.072	0.0	nontarget	5	1731072	b	0	17.0	n/a	n/a	9
1733.172	0.0	nontarget	5	1733172	g	0	23.0	n/a	n/a	9
1735.455	0.0	nontarget	5	1735455	i	0	34.0	n/a	n/a	9
1737.472	0.0	nontarget	5	1737472	d	0	18.0	n/a	n/a	9
1739.572	0.0	nontarget	5	1739572	q	0	23.0	n/a	n/a	9
1741.538	0.0	target	6	1741538	b	1	15.0	1	0.4892694	9
1741.888	0.5	BAD keypress	2	1741888	n/a	n/a	n/a	n/a	n/a	n/a
1742.138	0.0	keypress	4	1742138	n/a	n/a	n/a	n/a	n/a	n/a
1743.671	0.0	nontarget	5	1743671	h	0	33.0	n/a	n/a	9
1746.155	0.0	nontarget	5	1746155	a	0	46.0	n/a	n/a	9
1748.554	0.0	nontarget	5	1748554	l	0	41.0	n/a	n/a	9
1750.604	0.0	nontarget	5	1750604	y	0	20.0	n/a	n/a	9
1753.054	0.0	nontarget	5	1753054	v	0	44.0	n/a	n/a	9
1755.521	0.0	nontarget	5	1755521	j	0	45.0	n/a	n/a	9
1757.904	0.0	nontarget	5	1757904	x	0	40.0	n/a	n/a	9
1760.271	0.0	nontarget	5	1760271	a	0	39.0	n/a	n/a	9
1762.671	0.0	nontarget	5	1762671	l	0	41.0	n/a	n/a	9
1764.654	0.0	nontarget	5	1764654	m	0	16.0	n/a	n/a	9
1767.07	0.0	nontarget	5	1767070	ä	0	42.0	n/a	n/a	9
1769.537	0.0	target	6	1769537	o	1	45.0	1	0.4246445	9
1769.837	0.5	BAD keypress	2	1769837	n/a	n/a	n/a	n/a	n/a	n/a
1770.087	0.0	keypress	4	1770087	n/a	n/a	n/a	n/a	n/a	n/a
1771.653	0.0	nontarget	5	1771653	z	0	35.0	n/a	n/a	9
1774.053	0.0	nontarget	5	1774053	b	0	41.0	n/a	n/a	9
1776.353	0.0	nontarget	5	1776353	h	0	35.0	n/a	n/a	9
1778.653	0.0	nontarget	5	1778653	ß	0	35.0	n/a	n/a	9
1780.636	0.0	nontarget	5	1780636	y	0	16.0	n/a	n/a	9
1782.62	0.0	nontarget	5	1782620	ä	0	16.0	n/a	n/a	9
1785.036	0.0	target	6	1785036	z	1	42.0	1	0.428192	9
1785.336	0.5	BAD keypress	2	1785336	n/a	n/a	n/a	n/a	n/a	n/a
1785.586	0.0	keypress	4	1785586	n/a	n/a	n/a	n/a	n/a	n/a
1787.036	0.0	nontarget	5	1787036	i	0	28.0	n/a	n/a	9
1789.369	0.0	nontarget	5	1789369	o	0	37.0	n/a	n/a	9
1791.869	0.0	nontarget	5	1791869	u	0	47.0	n/a	n/a	9
1794.169	0.0	nontarget	5	1794169	q	0	35.0	n/a	n/a	9
1796.519	0.0	nontarget	5	1796519	ä	0	38.0	n/a	n/a	9
1798.652	0.0	target	6	1798652	e	1	25.0	1	0.3952081	9
1798.886	0.5	BAD keypress	2	1798886	n/a	n/a	n/a	n/a	n/a	n/a
1799.136	0.0	keypress	4	1799136	n/a	n/a	n/a	n/a	n/a	n/a
1800.536	0.0	nontarget	5	1800536	i	0	25.0	n/a	n/a	9
1802.685	0.0	nontarget	5	1802685	s	0	26.0	n/a	n/a	9
1804.635	0.0	nontarget	5	1804635	n	0	14.0	n/a	n/a	9
1807.069	0.0	nontarget	5	1807069	y	0	43.0	n/a	n/a	9
1809.268	0.0	nontarget	5	1809268	q	0	29.0	n/a	n/a	9
1811.602	0.0	target	6	1811602	u	1	37.0	1	0.4368174	9
1811.868	0.5	BAD keypress	2	1811868	n/a	n/a	n/a	n/a	n/a	n/a
1812.118	0.0	keypress	4	1812118	n/a	n/a	n/a	n/a	n/a	n/a
1813.685	0.0	nontarget	5	1813685	n	0	35.0	n/a	n/a	9
1815.818	0.0	nontarget	5	1815818	a	0	25.0	n/a	n/a	9
1818.268	0.0	nontarget	5	1818268	z	0	44.0	n/a	n/a	9
1820.251	0.0	nontarget	5	1820251	o	0	16.0	n/a	n/a	9
1822.668	0.0	target	6	1822668	m	1	42.0	1	0.4259116	9
1822.985	0.5	BAD keypress	2	1822985	n/a	n/a	n/a	n/a	n/a	n/a
1823.235	0.0	keypress	4	1823235	n/a	n/a	n/a	n/a	n/a	n/a
1825.001	0.0	target	6	1825001	k	1	47.0	1	0.4285288	9
1825.268	0.5	BAD keypress	2	1825268	n/a	n/a	n/a	n/a	n/a	n/a
1825.518	0.0	keypress	4	1825518	n/a	n/a	n/a	n/a	n/a	n/a
1826.618	28.914999999999964	BAD_break	3	1826618	n/a	n/a	n/a	n/a	n/a	n/a
1856.033	0.0	nontarget	5	1856033	l	0	15.0	n/a	n/a	10
1858.15	0.0	nontarget	5	1858150	c	0	24.0	n/a	n/a	10
1860.25	0.0	nontarget	5	1860250	e	0	23.0	n/a	n/a	10
1862.783	0.0	nontarget	5	1862783	j	0	49.0	n/a	n/a	10
1864.966	0.0	target	6	1864966	i	1	28.0	1	0.3969462	10
1865.233	0.5	BAD keypress	2	1865233	n/a	n/a	n/a	n/a	n/a	n/a
1865.483	0.0	keypress	4	1865483	n/a	n/a	n/a	n/a	n/a	n/a
1866.899	0.0	nontarget	5	1866899	u	0	26.0	n/a	n/a	10
1868.899	0.0	nontarget	5	1868899	m	0	17.0	n/a	n/a	10
1870.849	0.0	target	6	1870849	z	1	14.0	1	0.4335278	10
1871.133	0.5	BAD keypress	2	1871133	n/a	n/a	n/a	n/a	n/a	n/a
1871.383	0.0	keypress	4	1871383	n/a	n/a	n/a	n/a	n/a	n/a
1873.116	0.0	nontarget	5	1873116	b	0	45.0	n/a	n/a	10
1875.066	0.0	nontarget	5	1875066	f	0	14.0	n/a	n/a	10
1877.532	0.0	nontarget	5	1877532	s	0	45.0	n/a	n/a	10
1880.065	0.0	target	6	1880065	p	1	49.0	1	0.4006588	10
1880.332	0.5	BAD keypress	2	1880332	n/a	n/a	n/a	n/a	n/a	n/a
1880.582	0.0	keypress	4	1880582	n/a	n/a	n/a	n/a	n/a	n/a
1882.332	0.0	nontarget	5	1882332	d	0	46.0	n/a	n/a	10
1884.732	0.0	nontarget	5	1884732	a	0	41.0	n/a	n/a	10
1886.732	0.0	nontarget	5	1886732	f	0	17.0	n/a	n/a	10
1888.915	0.0	nontarget	5	1888915	u	0	28.0	n/a	n/a	10
1891.182	0.0	nontarget	5	1891182	v	0	33.0	n/a	n/a	10
1893.331	0.0	target	6	1893331	w	1	26.0	1	0.4615378	10
1893.632	0.5	BAD keypress	2	1893632	n/a	n/a	n/a	n/a	n/a	n/a
1893.882	0.0	keypress	4	1893882	n/a	n/a	n/a	n/a	n/a	n/a
1895.548	0.0	nontarget	5	1895548	t	0	41.0	n/a	n/a	10
1898.098	0.0	nontarget	5	1898098	k	0	50.0	n/a	n/a	10
1900.298	0.0	nontarget	5	1900298	w	0	29.0	n/a	n/a	10
1902.331	0.0	target	6	1902331	t	1	19.0	1	0.405385	10
1902.581	0.5	BAD keypress	2	1902581	n/a	n/a	n/a	n/a	n/a	n/a
1902.831	0.0	keypress	4	1902831	n/a	n/a	n/a	n/a	n/a	n/a
1904.464	0.0	target	6	1904464	v	1	39.0	1	0.3998819	10
1904.748	0.5	BAD keypress	2	1904748	n/a	n/a	n/a	n/a	n/a	n/a
1904.998	0.0	keypress	4	1904998	n/a	n/a	n/a	n/a	n/a	n/a
1906.531	0.0	nontarget	5	1906531	q	0	33.0	n/a	n/a	10
1908.497	0.0	nontarget	5	1908497	z	0	15.0	n/a	n/a	10
1910.464	0.0	nontarget	5	1910464	h	0	15.0	n/a	n/a	10
1912.747	0.0	nontarget	5	1912747	k	0	34.0	n/a	n/a	10
1914.881	0.0	nontarget	5	1914881	w	0	25.0	n/a	n/a	10
1917.18	0.0	target	6	1917180	k	1	35.0	1	0.3870451	10
1917.414	0.5	BAD keypress	2	1917414	n/a	n/a	n/a	n/a	n/a	n/a
1917.664	0.0	keypress	4	1917664	n/a	n/a	n/a	n/a	n/a	n/a
1918.997	0.0	nontarget	5	1918997	t	0	21.0	n/a	n/a	10
1921.33	0.0	nontarget	5	1921330	ü	0	37.0	n/a	n/a	10
1923.647	0.0	nontarget	5	1923647	p	0	36.0	n/a	n/a	10
1925.697	0.0	nontarget	5	1925697	g	0	20.0	n/a	n/a	10
1928.013	0.0	nontarget	5	1928013	h	0	36.0	n/a	n/a	10
1929.963	0.0	target	6	1929963	k	1	14.0	1	0.4033557	10
1930.213	0.5	BAD keypress	2	1930213	n/a	n/a	n/a	n/a	n/a	n/a
1930.463	0.0	keypress	4	1930463	n/a	n/a	n/a	n/a	n/a	n/a
1931.846	0.0	nontarget	5	1931846	m	0	24.0	n/a	n/a	10
1934.363	0.0	target	6	1934363	y	1	48.0	1	0.3711961	10
1934.58	0.5	BAD keypress	2	1934580	n/a	n/a	n/a	n/a	n/a	n/a
1934.83	0.0	keypress	4	1934830	n/a	n/a	n/a	n/a	n/a	n/a
1936.18	0.0	nontarget	5	1936180	z	0	22.0	n/a	n/a	10
1938.73	0.0	nontarget	5	1938730	p	0	50.0	n/a	n/a	10
1940.879	0.0	nontarget	5	1940879	ä	0	26.0	n/a	n/a	10
1943.229	0.0	nontarget	5	1943229	c	0	38.0	n/a	n/a	10
1945.446	0.0	nontarget	5	1945446	f	0	30.0	n/a	n/a	10
1947.462	0.0	nontarget	5	1947462	p	0	18.0	n/a	n/a	10
1949.929	0.0	nontarget	5	1949929	v	0	45.0	n/a	n/a	10
1952.379	0.0	nontarget	5	1952379	ö	0	44.0	n/a	n/a	10
1954.612	0.0	nontarget	5	1954612	h	0	31.0	n/a	n/a	10
1956.579	0.0	nontarget	5	1956579	g	0	15.0	n/a	n/a	10
1958.545	0.0	target	6	1958545	ü	1	15.0	1	0.4113585	10
1958.829	0.5	BAD keypress	2	1958829	n/a	n/a	n/a	n/a	n/a	n/a
1959.079	0.0	keypress	4	1959079	n/a	n/a	n/a	n/a	n/a	n/a
1960.712	0.0	nontarget	5	1960712	x	0	39.0	n/a	n/a	10
1962.778	0.0	target	6	1962778	l	1	21.0	1	0.4338484	10
1963.029	0.5	BAD keypress	2	1963029	n/a	n/a	n/a	n/a	n/a	n/a
1963.279	0.0	keypress	4	1963279	n/a	n/a	n/a	n/a	n/a	n/a
1964.578	0.0	target	6	1964578	a	1	19.0	1	0.4418129	10
1964.862	0.5	BAD keypress	2	1964862	n/a	n/a	n/a	n/a	n/a	n/a
1965.112	0.0	keypress	4	1965112	n/a	n/a	n/a	n/a	n/a	n/a
1966.362	0.0	nontarget	5	1966362	ß	0	16.0	n/a	n/a	10
1968.678	0.0	nontarget	5	1968678	ö	0	36.0	n/a	n/a	10
1970.761	0.0	nontarget	5	1970761	z	0	22.0	n/a	n/a	10
1973.278	0.0	nontarget	5	1973278	v	0	48.0	n/a	n/a	10
1975.811	0.0	nontarget	5	1975811	m	0	49.0	n/a	n/a	10
1978.211	0.0	nontarget	5	1978211	ü	0	41.0	n/a	n/a	10
1980.761	0.0	nontarget	5	1980761	c	0	50.0	n/a	n/a	10
1982.761	0.0	target	6	1982761	x	1	17.0	1	0.4180264	10
1983.044	0.5	BAD keypress	2	1983044	n/a	n/a	n/a	n/a	n/a	n/a
1983.294	0.0	keypress	4	1983294	n/a	n/a	n/a	n/a	n/a	n/a
1984.928	0.0	nontarget	5	1984928	x	0	39.0	n/a	n/a	10
1986.911	0.0	target	6	1986911	q	1	16.0	1	0.4119569	10
1987.161	0.5	BAD keypress	2	1987161	n/a	n/a	n/a	n/a	n/a	n/a
1987.411	0.0	keypress	4	1987411	n/a	n/a	n/a	n/a	n/a	n/a
1989.061	0.0	nontarget	5	1989061	c	0	40.0	n/a	n/a	10
1991.361	0.0	nontarget	5	1991361	q	0	35.0	n/a	n/a	10
1993.71	0.0	nontarget	5	1993710	ä	0	38.0	n/a	n/a	10
1995.877	0.0	nontarget	5	1995877	s	0	27.0	n/a	n/a	10
1998.36	0.0	nontarget	5	1998360	g	0	46.0	n/a	n/a	10
1999.46	55.19800000000009	BAD_break	3	1999460	n/a	n/a	n/a	n/a	n/a	n/a
2055.158	0.0	nontarget	5	2055158	z	0	24.0	n/a	n/a	11
2057.441	0.0	nontarget	5	2057441	d	0	34.0	n/a	n/a	11
2059.641	0.0	nontarget	5	2059641	k	0	29.0	n/a	n/a	11
2061.841	0.0	nontarget	5	2061841	w	0	29.0	n/a	n/a	11
2064.057	0.0	nontarget	5	2064057	q	0	30.0	n/a	n/a	11
2066.341	0.0	target	6	2066341	u	1	34.0	1	0.416622	11
2066.557	0.5	BAD keypress	2	2066557	n/a	n/a	n/a	n/a	n/a	n/a
2066.807	0.0	keypress	4	2066807	n/a	n/a	n/a	n/a	n/a	n/a
2068.374	0.0	nontarget	5	2068374	g	0	35.0	n/a	n/a	11
2070.657	0.0	nontarget	5	2070657	r	0	34.0	n/a	n/a	11
2072.674	0.0	nontarget	5	2072674	c	0	18.0	n/a	n/a	11
2074.824	0.0	nontarget	5	2074824	l	0	26.0	n/a	n/a	11
2077.04	0.0	nontarget	5	2077040	k	0	30.0	n/a	n/a	11
2079.007	0.0	nontarget	5	2079007	j	0	15.0	n/a	n/a	11
2081.023	0.0	nontarget	5	2081023	g	0	18.0	n/a	n/a	11
2083.44	0.0	nontarget	5	2083440	b	0	42.0	n/a	n/a	11
2085.856	0.0	nontarget	5	2085856	u	0	42.0	n/a	n/a	11
2088.006	0.0	nontarget	5	2088006	d	0	26.0	n/a	n/a	11
2090.44	0.0	target	6	2090440	r	1	43.0	1	0.3800612	11
2090.64	0.5	BAD keypress	2	2090640	n/a	n/a	n/a	n/a	n/a	n/a
2090.89	0.0	keypress	4	2090890	n/a	n/a	n/a	n/a	n/a	n/a
2092.106	0.0	nontarget	5	2092106	v	0	14.0	n/a	n/a	11
2094.156	0.0	nontarget	5	2094156	ü	0	20.0	n/a	n/a	11
2096.356	0.0	nontarget	5	2096356	s	0	29.0	n/a	n/a	11
2098.339	0.0	nontarget	5	2098339	h	0	16.0	n/a	n/a	11
2100.322	0.0	nontarget	5	2100322	k	0	16.0	n/a	n/a	11
2102.589	0.0	target	6	2102589	g	1	33.0	1	0.3897717	11
2102.839	0.5	BAD keypress	2	2102839	n/a	n/a	n/a	n/a	n/a	n/a
2103.089	0.0	keypress	4	2103089	n/a	n/a	n/a	n/a	n/a	n/a
2104.356	0.0	target	6	2104356	k	1	17.0	1	0.4470626	11
2104.672	0.5	BAD keypress	2	2104672	n/a	n/a	n/a	n/a	n/a	n/a
2104.922	0.0	keypress	4	2104922	n/a	n/a	n/a	n/a	n/a	n/a
2106.672	0.0	nontarget	5	2106672	a	0	46.0	n/a	n/a	11
2108.805	0.0	nontarget	5	2108805	v	0	25.0	n/a	n/a	11
2111.305	0.0	nontarget	5	2111305	g	0	47.0	n/a	n/a	11
2113.439	0.0	nontarget	5	2113439	l	0	25.0	n/a	n/a	11
2115.555	0.0	nontarget	5	2115555	ö	0	24.0	n/a	n/a	11
2117.988	0.0	nontarget	5	2117988	u	0	43.0	n/a	n/a	11
2120.372	0.0	nontarget	5	2120372	t	0	40.0	n/a	n/a	11
2122.605	0.0	nontarget	5	2122605	c	0	31.0	n/a	n/a	11
2124.821	0.0	nontarget	5	2124821	x	0	30.0	n/a	n/a	11
2126.821	0.0	nontarget	5	2126821	ä	0	17.0	n/a	n/a	11
2128.921	0.0	nontarget	5	2128921	z	0	23.0	n/a	n/a	11
2131.021	0.0	nontarget	5	2131021	ß	0	23.0	n/a	n/a	11
2133.288	0.0	nontarget	5	2133288	q	0	33.0	n/a	n/a	11
2135.654	0.0	nontarget	5	2135654	o	0	39.0	n/a	n/a	11
2137.888	0.0	nontarget	5	2137888	z	0	31.0	n/a	n/a	11
2139.837	0.0	nontarget	5	2139837	t	0	14.0	n/a	n/a	11
2142.054	0.0	nontarget	5	2142054	p	0	30.0	n/a	n/a	11
2144.204	0.0	target	6	2144204	q	1	26.0	1	0.4360908	11
2144.454	0.5	BAD keypress	2	2144454	n/a	n/a	n/a	n/a	n/a	n/a
2144.704	0.0	keypress	4	2144704	n/a	n/a	n/a	n/a	n/a	n/a
2146.287	0.0	target	6	2146287	b	1	36.0	1	0.3686566	11
2146.521	0.5	BAD keypress	2	2146521	n/a	n/a	n/a	n/a	n/a	n/a
2146.771	0.0	keypress	4	2146771	n/a	n/a	n/a	n/a	n/a	n/a
2148.37	0.0	nontarget	5	2148370	q	0	37.0	n/a	n/a	11
2150.67	0.0	nontarget	5	2150670	x	0	35.0	n/a	n/a	11
2153.17	0.0	nontarget	5	2153170	v	0	47.0	n/a	n/a	11
2155.203	0.0	target	6	2155203	c	1	19.0	1	0.4917818	11
2155.52	0.5	BAD keypress	2	2155520	n/a	n/a	n/a	n/a	n/a	n/a
2155.77	0.0	keypress	4	2155770	n/a	n/a	n/a	n/a	n/a	n/a
2157.203	0.0	target	6	2157203	s	1	27.0	1	0.3957515	11
2157.453	0.5	BAD keypress	2	2157453	n/a	n/a	n/a	n/a	n/a	n/a
2157.703	0.0	keypress	4	2157703	n/a	n/a	n/a	n/a	n/a	n/a
2159.137	0.0	nontarget	5	2159137	f	0	27.0	n/a	n/a	11
2161.37	0.0	target	6	2161370	x	1	31.0	1	0.4210649	11
2161.62	0.5	BAD keypress	2	2161620	n/a	n/a	n/a	n/a	n/a	n/a
2161.87	0.0	keypress	4	2161870	n/a	n/a	n/a	n/a	n/a	n/a
2163.57	0.0	nontarget	5	2163570	v	0	43.0	n/a	n/a	11
2165.586	0.0	nontarget	5	2165586	q	0	18.0	n/a	n/a	11
2167.97	0.0	nontarget	5	2167970	j	0	40.0	n/a	n/a	11
2170.053	0.0	nontarget	5	2170053	h	0	22.0	n/a	n/a	11
2172.153	0.0	nontarget	5	2172153	e	0	23.0	n/a	n/a	11
2174.103	0.0	nontarget	5	2174103	r	0	14.0	n/a	n/a	11
2176.336	0.0	nontarget	5	2176336	ö	0	31.0	n/a	n/a	11
2178.669	0.0	target	6	2178669	r	1	37.0	1	0.40069818	11
2178.902	0.5	BAD keypress	2	2178902	n/a	n/a	n/a	n/a	n/a	n/a
2179.152	0.0	keypress	4	2179152	n/a	n/a	n/a	n/a	n/a	n/a
2180.436	0.0	nontarget	5	2180436	u	0	18.0	n/a	n/a	11
2182.869	0.0	nontarget	5	2182869	z	0	43.0	n/a	n/a	11
2185.385	0.0	nontarget	5	2185385	k	0	48.0	n/a	n/a	11
2187.369	0.0	nontarget	5	2187369	q	0	16.0	n/a	n/a	11
2189.685	0.0	nontarget	5	2189685	ü	0	36.0	n/a	n/a	11
2191.919	0.0	nontarget	5	2191919	g	0	31.0	n/a	n/a	11
2194.202	0.0	nontarget	5	2194202	ö	0	34.0	n/a	n/a	11
2196.202	0.0	nontarget	5	2196202	z	0	17.0	n/a	n/a	11
2197.302	13.94900000000007	BAD_break	3	2197302	n/a	n/a	n/a	n/a	n/a	n/a
2211.751	0.0	nontarget	5	2211751	ß	0	25.0	n/a	n/a	12
2213.718	0.0	nontarget	5	2213718	s	0	15.0	n/a	n/a	12
2215.884	0.0	nontarget	5	2215884	b	0	27.0	n/a	n/a	12
2218.067	0.0	nontarget	5	2218067	o	0	28.0	n/a	n/a	12
2220.017	0.0	nontarget	5	2220017	r	0	14.0	n/a	n/a	12
2222.384	0.0	target	6	2222384	r	1	39.0	1	0.3629008	12
2222.584	0.5	BAD keypress	2	2222584	n/a	n/a	n/a	n/a	n/a	n/a
2222.834	0.0	keypress	4	2222834	n/a	n/a	n/a	n/a	n/a	n/a
2224.234	0.0	nontarget	5	2224234	g	0	25.0	n/a	n/a	12
2226.55	0.0	nontarget	5	2226550	v	0	36.0	n/a	n/a	12
2228.65	0.0	nontarget	5	2228650	u	0	23.0	n/a	n/a	12
2230.733	0.0	nontarget	5	2230733	s	0	22.0	n/a	n/a	12
2232.683	0.0	nontarget	5	2232683	f	0	14.0	n/a	n/a	12
2234.8	0.0	nontarget	5	2234800	w	0	24.0	n/a	n/a	12
2236.783	0.0	nontarget	5	2236783	n	0	16.0	n/a	n/a	12
2238.933	0.0	nontarget	5	2238933	m	0	26.0	n/a	n/a	12
2241.233	0.0	nontarget	5	2241233	g	0	35.0	n/a	n/a	12
2243.216	0.0	nontarget	5	2243216	h	0	16.0	n/a	n/a	12
2245.266	0.0	nontarget	5	2245266	f	0	20.0	n/a	n/a	12
2247.666	0.0	target	6	2247666	ä	1	41.0	1	0.3908655	12
2247.933	0.5	BAD keypress	2	2247933	n/a	n/a	n/a	n/a	n/a	n/a
2248.183	0.0	keypress	4	2248183	n/a	n/a	n/a	n/a	n/a	n/a
2249.849	0.0	nontarget	5	2249849	a	0	41.0	n/a	n/a	12
2252.166	0.0	nontarget	5	2252166	x	0	36.0	n/a	n/a	12
2254.582	0.0	target	6	2254582	c	1	42.0	1	0.4340431	12
2254.849	0.5	BAD keypress	2	2254849	n/a	n/a	n/a	n/a	n/a	n/a
2255.099	0.0	keypress	4	2255099	n/a	n/a	n/a	n/a	n/a	n/a
2256.649	0.0	nontarget	5	2256649	e	0	34.0	n/a	n/a	12
2259.099	0.0	nontarget	5	2259099	b	0	44.0	n/a	n/a	12
2261.165	0.0	nontarget	5	2261165	h	0	21.0	n/a	n/a	12
2263.182	0.0	nontarget	5	2263182	p	0	18.0	n/a	n/a	12
2265.399	0.0	nontarget	5	2265399	t	0	30.0	n/a	n/a	12
2267.815	0.0	nontarget	5	2267815	d	0	42.0	n/a	n/a	12
2270.065	0.0	nontarget	5	2270065	l	0	32.0	n/a	n/a	12
2272.298	0.0	nontarget	5	2272298	ß	0	31.0	n/a	n/a	12
2274.832	0.0	target	6	2274832	x	1	49.0	1	0.40764	12
2275.082	0.5	BAD keypress	2	2275082	n/a	n/a	n/a	n/a	n/a	n/a
2275.332	0.0	keypress	4	2275332	n/a	n/a	n/a	n/a	n/a	n/a
2276.581	0.0	nontarget	5	2276581	v	0	16.0	n/a	n/a	12
2278.531	0.0	nontarget	5	2278531	ö	0	14.0	n/a	n/a	12
2280.965	0.0	nontarget	5	2280965	r	0	43.0	n/a	n/a	12
2283.315	0.0	target	6	2283315	w	1	38.0	1	0.4040081	12
2283.631	0.5	BAD keypress	2	2283631	n/a	n/a	n/a	n/a	n/a	n/a
2283.881	0.0	keypress	4	2283881	n/a	n/a	n/a	n/a	n/a	n/a
2285.481	0.0	nontarget	5	2285481	z	0	37.0	n/a	n/a	12
2287.781	0.0	nontarget	5	2287781	ö	0	35.0	n/a	n/a	12
2290.014	0.0	nontarget	5	2290014	d	0	31.0	n/a	n/a	12
2292.447	0.0	nontarget	5	2292447	t	0	43.0	n/a	n/a	12
2294.847	0.0	nontarget	5	2294847	n	0	41.0	n/a	n/a	12
2296.964	0.0	target	6	2296964	b	1	24.0	1	0.4656366	12
2297.281	0.5	BAD keypress	2	2297281	n/a	n/a	n/a	n/a	n/a	n/a
2297.531	0.0	keypress	4	2297531	n/a	n/a	n/a	n/a	n/a	n/a
2299.03	0.0	nontarget	5	2299030	k	0	31.0	n/a	n/a	12
2301.297	0.0	nontarget	5	2301297	y	0	33.0	n/a	n/a	12
2303.247	0.0	nontarget	5	2303247	a	0	14.0	n/a	n/a	12
2305.33	0.0	nontarget	5	2305330	g	0	22.0	n/a	n/a	12
2307.28	0.0	target	6	2307280	d	1	14.0	1	0.4047446	12
2307.497	0.5	BAD keypress	2	2307497	n/a	n/a	n/a	n/a	n/a	n/a
2307.747	0.0	keypress	4	2307747	n/a	n/a	n/a	n/a	n/a	n/a
2309.48	0.0	target	6	2309480	m	1	45.0	1	0.396762	12
2309.664	0.5	BAD keypress	2	2309664	n/a	n/a	n/a	n/a	n/a	n/a
2309.914	0.0	keypress	4	2309914	n/a	n/a	n/a	n/a	n/a	n/a
2311.68	0.0	nontarget	5	2311680	j	0	47.0	n/a	n/a	12
2313.697	0.0	nontarget	5	2313697	c	0	18.0	n/a	n/a	12
2315.98	0.0	nontarget	5	2315980	e	0	34.0	n/a	n/a	12
2317.98	0.0	target	6	2317980	j	1	17.0	1	0.4084813	12
2318.23	0.5	BAD keypress	2	2318230	n/a	n/a	n/a	n/a	n/a	n/a
2318.48	0.0	keypress	4	2318480	n/a	n/a	n/a	n/a	n/a	n/a
2319.896	0.0	nontarget	5	2319896	j	0	26.0	n/a	n/a	12
2322.18	0.0	nontarget	5	2322180	h	0	34.0	n/a	n/a	12
2324.596	0.0	nontarget	5	2324596	r	0	42.0	n/a	n/a	12
2326.996	0.0	nontarget	5	2326996	ö	0	41.0	n/a	n/a	12
2329.229	0.0	target	6	2329229	a	1	31.0	1	0.4222254	12
2329.446	0.5	BAD keypress	2	2329446	n/a	n/a	n/a	n/a	n/a	n/a
2329.696	0.0	keypress	4	2329696	n/a	n/a	n/a	n/a	n/a	n/a
2331.146	0.0	nontarget	5	2331146	e	0	28.0	n/a	n/a	12
2333.329	0.0	nontarget	5	2333329	f	0	28.0	n/a	n/a	12
2335.462	0.0	nontarget	5	2335462	p	0	25.0	n/a	n/a	12
2337.862	0.0	nontarget	5	2337862	d	0	41.0	n/a	n/a	12
2340.195	0.0	nontarget	5	2340195	n	0	37.0	n/a	n/a	12
2342.262	0.0	nontarget	5	2342262	ä	0	21.0	n/a	n/a	12
2344.795	0.0	target	6	2344795	t	1	49.0	1	0.4551109	12
2345.045	0.5	BAD keypress	2	2345045	n/a	n/a	n/a	n/a	n/a	n/a
2345.295	0.0	keypress	4	2345295	n/a	n/a	n/a	n/a	n/a	n/a
2346.512	0.0	target	6	2346512	a	1	14.0	1	0.4665095	12
2346.795	0.5	BAD keypress	2	2346795	n/a	n/a	n/a	n/a	n/a	n/a
2347.045	0.0	keypress	4	2347045	n/a	n/a	n/a	n/a	n/a	n/a
2348.512	0.0	nontarget	5	2348512	v	0	29.0	n/a	n/a	12
2350.712	0.0	nontarget	5	2350712	ß	0	29.0	n/a	n/a	12
2353.228	0.0	target	6	2353228	ü	1	48.0	1	0.4216322	12
2353.478	0.5	BAD keypress	2	2353478	n/a	n/a	n/a	n/a	n/a	n/a
2353.728	0.0	keypress	4	2353728	n/a	n/a	n/a	n/a	n/a	n/a
2354.828	31.648999999999887	BAD_break	3	2354828	n/a	n/a	n/a	n/a	n/a	n/a
2386.977	0.0	target	6	2386977	w	1	36.0	1	0.3828721	13
2387.193	0.5	BAD keypress	2	2387193	n/a	n/a	n/a	n/a	n/a	n/a
2387.443	0.0	keypress	4	2387443	n/a	n/a	n/a	n/a	n/a	n/a
2389.043	0.0	nontarget	5	2389043	ä	0	36.0	n/a	n/a	13
2391.21	0.0	nontarget	5	2391210	z	0	27.0	n/a	n/a	13
2393.576	0.0	nontarget	5	2393576	m	0	39.0	n/a	n/a	13
2395.843	0.0	nontarget	5	2395843	o	0	33.0	n/a	n/a	13
2398.193	0.0	nontarget	5	2398193	ö	0	38.0	n/a	n/a	13
2400.276	0.0	nontarget	5	2400276	a	0	22.0	n/a	n/a	13
2402.809	0.0	nontarget	5	2402809	q	0	49.0	n/a	n/a	13
2405.026	0.0	nontarget	5	2405026	u	0	30.0	n/a	n/a	13
2407.259	0.0	nontarget	5	2407259	c	0	31.0	n/a	n/a	13
2409.709	0.0	nontarget	5	2409709	v	0	44.0	n/a	n/a	13
2411.842	0.0	nontarget	5	2411842	r	0	25.0	n/a	n/a	13
2414.192	0.0	nontarget	5	2414192	n	0	38.0	n/a	n/a	13
2416.325	0.0	target	6	2416325	h	1	25.0	1	0.4240982	13
2416.576	0.5	BAD keypress	2	2416576	n/a	n/a	n/a	n/a	n/a	n/a
2416.826	0.0	keypress	4	2416826	n/a	n/a	n/a	n/a	n/a	n/a
2418.475	0.0	nontarget	5	2418475	m	0	40.0	n/a	n/a	13
2420.509	0.0	nontarget	5	2420509	w	0	19.0	n/a	n/a	13
2423.025	0.0	target	6	2423025	u	1	48.0	1	0.3799644	13
2423.242	0.5	BAD keypress	2	2423242	n/a	n/a	n/a	n/a	n/a	n/a
2423.492	0.0	keypress	4	2423492	n/a	n/a	n/a	n/a	n/a	n/a
2424.808	0.0	nontarget	5	2424808	ä	0	20.0	n/a	n/a	13
2427.042	0.0	nontarget	5	2427042	j	0	31.0	n/a	n/a	13
2429.575	0.0	nontarget	5	2429575	i	0	49.0	n/a	n/a	13
2431.691	0.0	nontarget	5	2431691	y	0	24.0	n/a	n/a	13
2433.991	0.0	nontarget	5	2433991	z	0	35.0	n/a	n/a	13
2436.441	0.0	nontarget	5	2436441	d	0	44.0	n/a	n/a	13
2438.958	0.0	nontarget	5	2438958	i	0	48.0	n/a	n/a	13
2440.924	0.0	nontarget	5	2440924	j	0	15.0	n/a	n/a	13
2443.374	0.0	nontarget	5	2443374	p	0	44.0	n/a	n/a	13
2445.341	0.0	nontarget	5	2445341	h	0	15.0	n/a	n/a	13
2447.707	0.0	nontarget	5	2447707	c	0	39.0	n/a	n/a	13
2450.241	0.0	nontarget	5	2450241	y	0	49.0	n/a	n/a	13
2452.507	0.0	nontarget	5	2452507	ß	0	33.0	n/a	n/a	13
2454.457	0.0	nontarget	5	2454457	g	0	14.0	n/a	n/a	13
2456.624	0.0	nontarget	5	2456624	l	0	27.0	n/a	n/a	13
2459.157	0.0	nontarget	5	2459157	t	0	49.0	n/a	n/a	13
2461.64	0.0	nontarget	5	2461640	o	0	46.0	n/a	n/a	13
2463.99	0.0	nontarget	5	2463990	i	0	38.0	n/a	n/a	13
2466.257	0.0	nontarget	5	2466257	s	0	33.0	n/a	n/a	13
2468.273	0.0	nontarget	5	2468273	f	0	18.0	n/a	n/a	13
2470.773	0.0	target	6	2470773	o	1	47.0	1	0.4848773	13
2471.106	0.5	BAD keypress	2	2471106	n/a	n/a	n/a	n/a	n/a	n/a
2471.356	0.0	keypress	4	2471356	n/a	n/a	n/a	n/a	n/a	n/a
2472.89	0.0	nontarget	5	2472890	m	0	33.0	n/a	n/a	13
2475.09	0.0	nontarget	5	2475090	a	0	29.0	n/a	n/a	13
2477.039	0.0	target	6	2477039	t	1	14.0	1	0.4580328	13
2477.34	0.5	BAD keypress	2	2477340	n/a	n/a	n/a	n/a	n/a	n/a
2477.59	0.0	keypress	4	2477590	n/a	n/a	n/a	n/a	n/a	n/a
2479.139	0.0	nontarget	5	2479139	w	0	34.0	n/a	n/a	13
2481.239	0.0	target	6	2481239	m	1	23.0	1	0.4338948	13
2481.489	0.5	BAD keypress	2	2481489	n/a	n/a	n/a	n/a	n/a	n/a
2481.739	0.0	keypress	4	2481739	n/a	n/a	n/a	n/a	n/a	n/a
2483.289	0.0	nontarget	5	2483289	u	0	34.0	n/a	n/a	13
2485.806	0.0	nontarget	5	2485806	p	0	48.0	n/a	n/a	13
2487.822	0.0	nontarget	5	2487822	a	0	18.0	n/a	n/a	13
2490.106	0.0	target	6	2490106	x	1	34.0	1	0.4150142	13
2490.339	0.5	BAD keypress	2	2490339	n/a	n/a	n/a	n/a	n/a	n/a
2490.589	0.0	keypress	4	2490589	n/a	n/a	n/a	n/a	n/a	n/a
2492.372	0.0	nontarget	5	2492372	k	0	48.0	n/a	n/a	13
2494.739	0.0	target	6	2494739	w	1	39.0	1	0.453533	13
2495.022	0.5	BAD keypress	2	2495022	n/a	n/a	n/a	n/a	n/a	n/a
2495.272	0.0	keypress	4	2495272	n/a	n/a	n/a	n/a	n/a	n/a
2496.639	0.0	nontarget	5	2496639	p	0	23.0	n/a	n/a	13
2498.839	0.0	nontarget	5	2498839	u	0	29.0	n/a	n/a	13
2501.205	0.0	nontarget	5	2501205	r	0	39.0	n/a	n/a	13
2503.522	0.0	nontarget	5	2503522	k	0	36.0	n/a	n/a	13
2505.622	0.0	nontarget	5	2505622	f	0	23.0	n/a	n/a	13
2508.105	0.0	target	6	2508105	v	1	46.0	1	0.4145091	13
2508.355	0.5	BAD keypress	2	2508355	n/a	n/a	n/a	n/a	n/a	n/a
2508.605	0.0	keypress	4	2508605	n/a	n/a	n/a	n/a	n/a	n/a
2509.888	0.0	nontarget	5	2509888	w	0	18.0	n/a	n/a	13
2512.238	0.0	nontarget	5	2512238	ü	0	38.0	n/a	n/a	13
2514.321	0.0	target	6	2514321	o	1	22.0	1	0.4536738	13
2514.655	0.5	BAD keypress	2	2514655	n/a	n/a	n/a	n/a	n/a	n/a
2514.905	0.0	keypress	4	2514905	n/a	n/a	n/a	n/a	n/a	n/a
2516.121	0.0	nontarget	5	2516121	ö	0	14.0	n/a	n/a	13
2518.388	0.0	nontarget	5	2518388	d	0	33.0	n/a	n/a	13
2520.504	0.0	nontarget	5	2520504	n	0	24.0	n/a	n/a	13
2522.704	0.0	nontarget	5	2522704	y	0	29.0	n/a	n/a	13
2524.904	0.0	target	6	2524904	q	1	29.0	1	0.4301362	13
2525.137	0.5	BAD keypress	2	2525137	n/a	n/a	n/a	n/a	n/a	n/a
2525.387	0.0	keypress	4	2525387	n/a	n/a	n/a	n/a	n/a	n/a
2527.054	0.0	target	6	2527054	n	1	41.0	1	0.4400496	13
2527.287	0.5	BAD keypress	2	2527287	n/a	n/a	n/a	n/a	n/a	n/a
2527.537	0.0	keypress	4	2527537	n/a	n/a	n/a	n/a	n/a	n/a
2528.987	0.0	nontarget	5	2528987	g	0	28.0	n/a	n/a	13
2531.02	0.0	target	6	2531020	h	1	19.0	1	0.4252984	13
2531.254	0.5	BAD keypress	2	2531254	n/a	n/a	n/a	n/a	n/a	n/a
2531.504	0.0	keypress	4	2531504	n/a	n/a	n/a	n/a	n/a	n/a
2532.604	36.48100000000022	BAD_break	3	2532604	n/a	n/a	n/a	n/a	n/a	n/a
2569.585	0.0	nontarget	5	2569585	u	0	14.0	n/a	n/a	14
2572.002	0.0	nontarget	5	2572002	z	0	42.0	n/a	n/a	14
2574.035	0.0	nontarget	5	2574035	g	0	19.0	n/a	n/a	14
2576.102	0.0	target	6	2576102	u	1	21.0	1	0.3968565	14
2576.335	0.5	BAD keypress	2	2576335	n/a	n/a	n/a	n/a	n/a	n/a
2576.585	0.0	keypress	4	2576585	n/a	n/a	n/a	n/a	n/a	n/a
2578.052	0.0	nontarget	5	2578052	i	0	29.0	n/a	n/a	14
2580.135	0.0	target	6	2580135	t	1	22.0	1	0.3794154	14
2580.385	0.5	BAD keypress	2	2580385	n/a	n/a	n/a	n/a	n/a	n/a
2580.635	0.0	keypress	4	2580635	n/a	n/a	n/a	n/a	n/a	n/a
2582.418	0.0	nontarget	5	2582418	g	0	48.0	n/a	n/a	14
2584.418	0.0	target	6	2584418	d	1	17.0	1	0.3680006	14
2584.618	0.5	BAD keypress	2	2584618	n/a	n/a	n/a	n/a	n/a	n/a
2584.868	0.0	keypress	4	2584868	n/a	n/a	n/a	n/a	n/a	n/a
2586.251	0.0	nontarget	5	2586251	f	0	24.0	n/a	n/a	14
2588.601	0.0	target	6	2588601	c	1	38.0	1	0.4245606	14
2588.851	0.5	BAD keypress	2	2588851	n/a	n/a	n/a	n/a	n/a	n/a
2589.101	0.0	keypress	4	2589101	n/a	n/a	n/a	n/a	n/a	n/a
2590.451	0.0	target	6	2590451	v	1	22.0	1	0.4465609	14
2590.718	0.5	BAD keypress	2	2590718	n/a	n/a	n/a	n/a	n/a	n/a
2590.968	0.0	keypress	4	2590968	n/a	n/a	n/a	n/a	n/a	n/a
2592.234	0.0	target	6	2592234	ü	1	17.0	1	0.3751799	14
2592.451	0.5	BAD keypress	2	2592451	n/a	n/a	n/a	n/a	n/a	n/a
2592.701	0.0	keypress	4	2592701	n/a	n/a	n/a	n/a	n/a	n/a
2594.151	0.0	nontarget	5	2594151	i	0	28.0	n/a	n/a	14
2596.368	0.0	nontarget	5	2596368	a	0	30.0	n/a	n/a	14
2598.518	0.0	nontarget	5	2598518	n	0	26.0	n/a	n/a	14
2600.501	0.0	nontarget	5	2600501	x	0	16.0	n/a	n/a	14
2602.634	0.0	nontarget	5	2602634	w	0	25.0	n/a	n/a	14
2604.917	0.0	nontarget	5	2604917	h	0	34.0	n/a	n/a	14
2607.267	0.0	target	6	2607267	s	1	38.0	1	0.413407	14
2607.517	0.5	BAD keypress	2	2607517	n/a	n/a	n/a	n/a	n/a	n/a
2607.767	0.0	keypress	4	2607767	n/a	n/a	n/a	n/a	n/a	n/a
2609.267	0.0	nontarget	5	2609267	o	0	31.0	n/a	n/a	14
2611.417	0.0	nontarget	5	2611417	x	0	26.0	n/a	n/a	14
2613.667	0.0	nontarget	5	2613667	ö	0	32.0	n/a	n/a	14
2615.767	0.0	nontarget	5	2615767	ä	0	23.0	n/a	n/a	14
2617.9	0.0	nontarget	5	2617900	f	0	25.0	n/a	n/a	14
2619.85	0.0	target	6	2619850	z	1	14.0	1	0.4697706	14
2620.133	0.5	BAD keypress	2	2620133	n/a	n/a	n/a	n/a	n/a	n/a
2620.383	0.0	keypress	4	2620383	n/a	n/a	n/a	n/a	n/a	n/a
2621.75	0.0	nontarget	5	2621750	y	0	23.0	n/a	n/a	14
2624.033	0.0	nontarget	5	2624033	o	0	34.0	n/a	n/a	14
2626.383	0.0	nontarget	5	2626383	a	0	38.0	n/a	n/a	14
2628.733	0.0	nontarget	5	2628733	l	0	38.0	n/a	n/a	14
2630.933	0.0	nontarget	5	2630933	z	0	29.0	n/a	n/a	14
2633.099	0.0	target	6	2633099	p	1	27.0	1	0.4194132	14
2633.333	0.5	BAD keypress	2	2633333	n/a	n/a	n/a	n/a	n/a	n/a
2633.583	0.0	keypress	4	2633583	n/a	n/a	n/a	n/a	n/a	n/a
2634.933	0.0	nontarget	5	2634933	y	0	22.0	n/a	n/a	14
2637.249	0.0	nontarget	5	2637249	ü	0	36.0	n/a	n/a	14
2639.649	0.0	nontarget	5	2639649	s	0	41.0	n/a	n/a	14
2641.966	0.0	nontarget	5	2641966	d	0	36.0	n/a	n/a	14
2644.082	0.0	nontarget	5	2644082	i	0	24.0	n/a	n/a	14
2646.282	0.0	nontarget	5	2646282	l	0	29.0	n/a	n/a	14
2648.749	0.0	nontarget	5	2648749	w	0	45.0	n/a	n/a	14
2651.065	0.0	nontarget	5	2651065	p	0	36.0	n/a	n/a	14
2653.015	0.0	nontarget	5	2653015	ö	0	14.0	n/a	n/a	14
2655.565	0.0	nontarget	5	2655565	n	0	50.0	n/a	n/a	14
2657.882	0.0	nontarget	5	2657882	x	0	36.0	n/a	n/a	14
2660.248	0.0	nontarget	5	2660248	p	0	39.0	n/a	n/a	14
2662.781	0.0	nontarget	5	2662781	s	0	49.0	n/a	n/a	14
2665.031	0.0	nontarget	5	2665031	i	0	32.0	n/a	n/a	14
2667.048	0.0	nontarget	5	2667048	m	0	18.0	n/a	n/a	14
2669.414	0.0	nontarget	5	2669414	x	0	39.0	n/a	n/a	14
2671.614	0.0	nontarget	5	2671614	s	0	29.0	n/a	n/a	14
2673.981	0.0	nontarget	5	2673981	n	0	39.0	n/a	n/a	14
2676.097	0.0	target	6	2676097	u	1	24.0	1	0.4103744	14
2676.364	0.5	BAD keypress	2	2676364	n/a	n/a	n/a	n/a	n/a	n/a
2676.614	0.0	keypress	4	2676614	n/a	n/a	n/a	n/a	n/a	n/a
2677.864	0.0	nontarget	5	2677864	w	0	16.0	n/a	n/a	14
2679.881	0.0	nontarget	5	2679881	p	0	18.0	n/a	n/a	14
2682.297	0.0	nontarget	5	2682297	y	0	42.0	n/a	n/a	14
2684.364	0.0	nontarget	5	2684364	t	0	21.0	n/a	n/a	14
2686.414	0.0	nontarget	5	2686414	l	0	20.0	n/a	n/a	14
2688.397	0.0	nontarget	5	2688397	a	0	16.0	n/a	n/a	14
2690.514	0.0	nontarget	5	2690514	h	0	24.0	n/a	n/a	14
2692.597	0.0	nontarget	5	2692597	i	0	22.0	n/a	n/a	14
2694.88	0.0	nontarget	5	2694880	d	0	34.0	n/a	n/a	14
2697.33	0.0	nontarget	5	2697330	l	0	44.0	n/a	n/a	14
2698.43	9.409000000000106	BAD_break	3	2698430	n/a	n/a	n/a	n/a	n/a	n/a
