onset	duration	trial_type	value	sample	stimulus	target	blank_jitter_frames	accuracy	response_time	block
0.0	205.981	BAD_break	2	0	n/a	n/a	n/a	n/a	n/a	n/a
206.481	0.0	target	5	206481	o	1	17.0	1	0.640874	1
206.964	0.5	BAD keypress	1	206964	n/a	n/a	n/a	n/a	n/a	n/a
207.214	0.0	keypress	3	207214	n/a	n/a	n/a	n/a	n/a	n/a
208.731	0.0	target	5	208731	ä	1	31.0	1	0.4549139	1
209.048	0.5	BAD keypress	1	209048	n/a	n/a	n/a	n/a	n/a	n/a
209.298	0.0	keypress	3	209298	n/a	n/a	n/a	n/a	n/a	n/a
210.781	0.0	nontarget	4	210781	w	0	29.0	n/a	n/a	1
212.981	0.0	nontarget	4	212981	p	0	29.0	n/a	n/a	1
215.164	0.0	nontarget	4	215164	t	0	28.0	n/a	n/a	1
217.397	0.0	nontarget	4	217397	m	0	31.0	n/a	n/a	1
219.747	0.0	nontarget	4	219747	z	0	38.0	n/a	n/a	1
221.947	0.0	nontarget	4	221947	w	0	29.0	n/a	n/a	1
224.03	0.0	target	5	224030	u	1	22.0	1	0.4664299	1
224.33	0.5	BAD keypress	1	224330	n/a	n/a	n/a	n/a	n/a	n/a
224.58	0.0	keypress	3	224580	n/a	n/a	n/a	n/a	n/a	n/a
226.163	0.0	target	5	226163	p	1	36.0	1	0.5251932	1
226.547	0.5	BAD keypress	1	226547	n/a	n/a	n/a	n/a	n/a	n/a
226.797	0.0	keypress	3	226797	n/a	n/a	n/a	n/a	n/a	n/a
228.413	0.0	nontarget	4	228413	s	0	38.0	n/a	n/a	1
230.913	0.0	nontarget	4	230913	i	0	47.0	n/a	n/a	1
233.23	0.0	nontarget	4	233230	r	0	36.0	n/a	n/a	1
235.546	0.0	nontarget	4	235546	x	0	36.0	n/a	n/a	1
237.946	0.0	nontarget	4	237946	v	0	41.0	n/a	n/a	1
239.946	0.0	target	5	239946	o	1	17.0	1	0.4375572	1
240.263	0.5	BAD keypress	1	240263	n/a	n/a	n/a	n/a	n/a	n/a
240.513	0.0	keypress	3	240513	n/a	n/a	n/a	n/a	n/a	n/a
242.229	0.0	nontarget	4	242229	f	0	43.0	n/a	n/a	1
244.563	0.0	nontarget	4	244563	g	0	37.0	n/a	n/a	1
246.546	0.0	nontarget	4	246546	w	0	16.0	n/a	n/a	1
248.879	0.0	nontarget	4	248879	a	0	37.0	n/a	n/a	1
250.846	0.0	nontarget	4	250846	p	0	15.0	n/a	n/a	1
253.162	0.0	nontarget	4	253162	j	0	36.0	n/a	n/a	1
255.329	0.0	nontarget	4	255329	d	0	27.0	n/a	n/a	1
257.362	0.0	nontarget	4	257362	n	0	19.0	n/a	n/a	1
259.595	0.0	nontarget	4	259595	ü	0	31.0	n/a	n/a	1
261.979	0.0	nontarget	4	261979	b	0	40.0	n/a	n/a	1
264.145	0.0	nontarget	4	264145	ö	0	27.0	n/a	n/a	1
266.145	0.0	nontarget	4	266145	f	0	17.0	n/a	n/a	1
268.178	0.0	nontarget	4	268178	y	0	19.0	n/a	n/a	1
270.545	0.0	nontarget	4	270545	z	0	39.0	n/a	n/a	1
272.728	0.0	nontarget	4	272728	b	0	28.0	n/a	n/a	1
274.745	0.0	nontarget	4	274745	o	0	18.0	n/a	n/a	1
276.745	0.0	nontarget	4	276745	ß	0	17.0	n/a	n/a	1
279.111	0.0	nontarget	4	279111	m	0	39.0	n/a	n/a	1
281.078	0.0	nontarget	4	281078	b	0	15.0	n/a	n/a	1
283.444	0.0	nontarget	4	283444	k	0	39.0	n/a	n/a	1
285.561	0.0	nontarget	4	285561	x	0	24.0	n/a	n/a	1
287.977	0.0	target	5	287977	g	1	42.0	1	0.4671759	1
288.311	0.5	BAD keypress	1	288311	n/a	n/a	n/a	n/a	n/a	n/a
288.561	0.0	keypress	3	288561	n/a	n/a	n/a	n/a	n/a	n/a
290.161	0.0	target	5	290161	p	1	37.0	1	0.44379	1
290.444	0.5	BAD keypress	1	290444	n/a	n/a	n/a	n/a	n/a	n/a
290.694	0.0	keypress	3	290694	n/a	n/a	n/a	n/a	n/a	n/a
292.111	0.0	nontarget	4	292111	t	0	26.0	n/a	n/a	1
294.327	0.0	nontarget	4	294327	k	0	30.0	n/a	n/a	1
296.377	0.0	nontarget	4	296377	q	0	20.0	n/a	n/a	1
298.76	0.0	nontarget	4	298760	h	0	40.0	n/a	n/a	1
300.993	0.0	target	5	300993	j	1	31.0	1	0.6182203	1
301.444	0.5	BAD keypress	1	301444	n/a	n/a	n/a	n/a	n/a	n/a
301.694	0.0	keypress	3	301694	n/a	n/a	n/a	n/a	n/a	n/a
303.06	0.0	target	5	303060	c	1	23.0	1	0.5355207	1
303.46	0.5	BAD keypress	1	303460	n/a	n/a	n/a	n/a	n/a	n/a
303.71	0.0	keypress	3	303710	n/a	n/a	n/a	n/a	n/a	n/a
305.443	0.0	nontarget	4	305443	o	0	45.0	n/a	n/a	1
307.927	0.0	nontarget	4	307927	v	0	46.0	n/a	n/a	1
310.076	0.0	nontarget	4	310076	ß	0	26.0	n/a	n/a	1
312.026	0.0	nontarget	4	312026	k	0	14.0	n/a	n/a	1
314.176	0.0	nontarget	4	314176	h	0	26.0	n/a	n/a	1
316.709	0.0	nontarget	4	316709	r	0	49.0	n/a	n/a	1
318.843	0.0	nontarget	4	318843	ä	0	25.0	n/a	n/a	1
321.143	0.0	nontarget	4	321143	p	0	35.0	n/a	n/a	1
323.143	0.0	target	5	323143	s	1	17.0	1	0.4197427	1
323.409	0.5	BAD keypress	1	323409	n/a	n/a	n/a	n/a	n/a	n/a
323.659	0.0	keypress	3	323659	n/a	n/a	n/a	n/a	n/a	n/a
324.959	0.0	nontarget	4	324959	a	0	19.0	n/a	n/a	1
327.359	0.0	nontarget	4	327359	m	0	41.0	n/a	n/a	1
329.892	0.0	nontarget	4	329892	i	0	49.0	n/a	n/a	1
332.175	0.0	nontarget	4	332175	l	0	34.0	n/a	n/a	1
334.242	0.0	target	5	334242	e	1	21.0	1	0.4714973	1
334.575	0.5	BAD keypress	1	334575	n/a	n/a	n/a	n/a	n/a	n/a
334.825	0.0	keypress	3	334825	n/a	n/a	n/a	n/a	n/a	n/a
336.642	0.0	nontarget	4	336642	ü	0	50.0	n/a	n/a	1
339.025	0.0	nontarget	4	339025	g	0	40.0	n/a	n/a	1
341.492	0.0	nontarget	4	341492	j	0	45.0	n/a	n/a	1
343.475	0.0	target	5	343475	s	1	16.0	1	0.4059491	1
343.742	0.5	BAD keypress	1	343742	n/a	n/a	n/a	n/a	n/a	n/a
343.992	0.0	keypress	3	343992	n/a	n/a	n/a	n/a	n/a	n/a
345.608	0.0	nontarget	4	345608	x	0	38.0	n/a	n/a	1
347.741	0.0	nontarget	4	347741	c	0	25.0	n/a	n/a	1
350.175	0.0	target	5	350175	h	1	43.0	1	0.4897807	1
350.525	0.5	BAD keypress	1	350525	n/a	n/a	n/a	n/a	n/a	n/a
350.775	0.0	keypress	3	350775	n/a	n/a	n/a	n/a	n/a	n/a
351.875	29.432000000000016	BAD_break	2	351875	n/a	n/a	n/a	n/a	n/a	n/a
381.807	0.0	nontarget	4	381807	d	0	15.0	n/a	n/a	2
384.107	0.0	target	5	384107	e	1	35.0	1	0.427676	2
384.39	0.5	BAD keypress	1	384390	n/a	n/a	n/a	n/a	n/a	n/a
384.64	0.0	keypress	3	384640	n/a	n/a	n/a	n/a	n/a	n/a
386.373	0.0	nontarget	4	386373	a	0	44.0	n/a	n/a	2
388.39	0.0	nontarget	4	388390	k	0	18.0	n/a	n/a	2
390.69	0.0	nontarget	4	390690	q	0	35.0	n/a	n/a	2
392.756	0.0	nontarget	4	392756	p	0	21.0	n/a	n/a	2
395.273	0.0	nontarget	4	395273	j	0	48.0	n/a	n/a	2
397.273	0.0	target	5	397273	i	1	17.0	1	0.4926944	2
397.623	0.5	BAD keypress	1	397623	n/a	n/a	n/a	n/a	n/a	n/a
397.873	0.0	keypress	3	397873	n/a	n/a	n/a	n/a	n/a	n/a
399.106	0.0	nontarget	4	399106	ß	0	14.0	n/a	n/a	2
401.189	0.0	nontarget	4	401189	n	0	22.0	n/a	n/a	2
403.556	0.0	target	5	403556	v	1	39.0	1	0.4652207	2
403.872	0.5	BAD keypress	1	403872	n/a	n/a	n/a	n/a	n/a	n/a
404.122	0.0	keypress	3	404122	n/a	n/a	n/a	n/a	n/a	n/a
405.406	0.0	nontarget	4	405406	ü	0	18.0	n/a	n/a	2
407.556	0.0	nontarget	4	407556	o	0	26.0	n/a	n/a	2
409.722	0.0	target	5	409722	w	1	27.0	1	0.4583876	2
410.056	0.5	BAD keypress	1	410056	n/a	n/a	n/a	n/a	n/a	n/a
410.306	0.0	keypress	3	410306	n/a	n/a	n/a	n/a	n/a	n/a
411.822	0.0	target	5	411822	l	1	31.0	1	0.4862728	2
412.155	0.5	BAD keypress	1	412155	n/a	n/a	n/a	n/a	n/a	n/a
412.405	0.0	keypress	3	412405	n/a	n/a	n/a	n/a	n/a	n/a
414.055	0.0	nontarget	4	414055	p	0	40.0	n/a	n/a	2
416.338	0.0	nontarget	4	416338	u	0	34.0	n/a	n/a	2
418.738	0.0	target	5	418738	p	1	41.0	1	0.4655461	2
419.055	0.5	BAD keypress	1	419055	n/a	n/a	n/a	n/a	n/a	n/a
419.305	0.0	keypress	3	419305	n/a	n/a	n/a	n/a	n/a	n/a
420.638	0.0	nontarget	4	420638	f	0	20.0	n/a	n/a	2
422.605	0.0	target	5	422605	d	1	15.0	1	0.4068203	2
422.872	0.5	BAD keypress	1	422872	n/a	n/a	n/a	n/a	n/a	n/a
423.122	0.0	keypress	3	423122	n/a	n/a	n/a	n/a	n/a	n/a
424.571	0.0	nontarget	4	424571	l	0	28.0	n/a	n/a	2
426.538	0.0	nontarget	4	426538	z	0	15.0	n/a	n/a	2
428.688	0.0	target	5	428688	v	1	26.0	1	0.4193432	2
428.955	0.5	BAD keypress	1	428955	n/a	n/a	n/a	n/a	n/a	n/a
429.205	0.0	keypress	3	429205	n/a	n/a	n/a	n/a	n/a	n/a
430.521	0.0	nontarget	4	430521	d	0	16.0	n/a	n/a	2
432.821	0.0	nontarget	4	432821	k	0	35.0	n/a	n/a	2
435.238	0.0	nontarget	4	435238	m	0	42.0	n/a	n/a	2
437.554	0.0	nontarget	4	437554	e	0	36.0	n/a	n/a	2
439.771	0.0	nontarget	4	439771	t	0	30.0	n/a	n/a	2
441.921	0.0	nontarget	4	441921	k	0	26.0	n/a	n/a	2
444.071	0.0	nontarget	4	444071	z	0	26.0	n/a	n/a	2
446.387	0.0	nontarget	4	446387	w	0	36.0	n/a	n/a	2
448.62	0.0	nontarget	4	448620	q	0	31.0	n/a	n/a	2
450.62	0.0	nontarget	4	450620	d	0	17.0	n/a	n/a	2
453.137	0.0	target	5	453137	b	1	48.0	1	0.4807659	2
453.47	0.5	BAD keypress	1	453470	n/a	n/a	n/a	n/a	n/a	n/a
453.72	0.0	keypress	3	453720	n/a	n/a	n/a	n/a	n/a	n/a
455.32	0.0	nontarget	4	455320	g	0	37.0	n/a	n/a	2
457.603	0.0	nontarget	4	457603	t	0	34.0	n/a	n/a	2
460.07	0.0	nontarget	4	460070	w	0	45.0	n/a	n/a	2
462.22	0.0	nontarget	4	462220	ö	0	26.0	n/a	n/a	2
464.586	0.0	target	5	464586	ä	1	39.0	1	0.4544973	2
464.886	0.5	BAD keypress	1	464886	n/a	n/a	n/a	n/a	n/a	n/a
465.136	0.0	keypress	3	465136	n/a	n/a	n/a	n/a	n/a	n/a
466.72	0.0	nontarget	4	466720	z	0	36.0	n/a	n/a	2
469.17	0.0	nontarget	4	469170	u	0	44.0	n/a	n/a	2
471.586	0.0	nontarget	4	471586	k	0	42.0	n/a	n/a	2
473.986	0.0	nontarget	4	473986	y	0	41.0	n/a	n/a	2
475.953	0.0	target	5	475953	d	1	15.0	1	0.4635606	2
476.286	0.5	BAD keypress	1	476286	n/a	n/a	n/a	n/a	n/a	n/a
476.536	0.0	keypress	3	476536	n/a	n/a	n/a	n/a	n/a	n/a
478.336	0.0	target	5	478336	s	1	49.0	1	0.5282673	2
478.753	0.5	BAD keypress	1	478753	n/a	n/a	n/a	n/a	n/a	n/a
479.003	0.0	keypress	3	479003	n/a	n/a	n/a	n/a	n/a	n/a
480.552	0.0	nontarget	4	480552	k	0	34.0	n/a	n/a	2
482.686	0.0	nontarget	4	482686	f	0	25.0	n/a	n/a	2
485.085	0.0	nontarget	4	485085	q	0	41.0	n/a	n/a	2
487.519	0.0	nontarget	4	487519	y	0	43.0	n/a	n/a	2
489.685	0.0	nontarget	4	489685	u	0	27.0	n/a	n/a	2
491.669	0.0	nontarget	4	491669	x	0	16.0	n/a	n/a	2
494.068	0.0	nontarget	4	494068	d	0	41.0	n/a	n/a	2
496.085	0.0	nontarget	4	496085	c	0	18.0	n/a	n/a	2
498.285	0.0	nontarget	4	498285	n	0	29.0	n/a	n/a	2
500.818	0.0	nontarget	4	500818	a	0	49.0	n/a	n/a	2
502.851	0.0	nontarget	4	502851	p	0	19.0	n/a	n/a	2
505.185	0.0	nontarget	4	505185	f	0	37.0	n/a	n/a	2
507.185	0.0	nontarget	4	507185	l	0	17.0	n/a	n/a	2
509.218	0.0	nontarget	4	509218	y	0	19.0	n/a	n/a	2
511.518	0.0	nontarget	4	511518	x	0	35.0	n/a	n/a	2
513.968	0.0	nontarget	4	513968	a	0	44.0	n/a	n/a	2
516.501	0.0	target	5	516501	x	1	49.0	1	0.4246759	2
516.818	0.5	BAD keypress	1	516818	n/a	n/a	n/a	n/a	n/a	n/a
517.068	0.0	keypress	3	517068	n/a	n/a	n/a	n/a	n/a	n/a
518.817	0.0	nontarget	4	518817	j	0	46.0	n/a	n/a	2
521.017	0.0	target	5	521017	g	1	29.0	1	0.4839591	2
521.384	0.5	BAD keypress	1	521384	n/a	n/a	n/a	n/a	n/a	n/a
521.634	0.0	keypress	3	521634	n/a	n/a	n/a	n/a	n/a	n/a
522.867	0.0	nontarget	4	522867	m	0	15.0	n/a	n/a	2
524.9	0.0	nontarget	4	524900	p	0	19.0	n/a	n/a	2
526.0	29.831999999999997	BAD_break	2	526000	n/a	n/a	n/a	n/a	n/a	n/a
556.332	0.0	nontarget	4	556332	e	0	49.0	n/a	n/a	3
558.449	0.0	nontarget	4	558449	i	0	24.0	n/a	n/a	3
560.549	0.0	nontarget	4	560549	c	0	23.0	n/a	n/a	3
562.532	0.0	target	5	562532	v	1	16.0	1	0.4062577	3
562.832	0.5	BAD keypress	1	562832	n/a	n/a	n/a	n/a	n/a	n/a
563.082	0.0	keypress	3	563082	n/a	n/a	n/a	n/a	n/a	n/a
564.499	0.0	target	5	564499	m	1	26.0	1	0.4395652	3
564.832	0.5	BAD keypress	1	564832	n/a	n/a	n/a	n/a	n/a	n/a
565.082	0.0	keypress	3	565082	n/a	n/a	n/a	n/a	n/a	n/a
566.432	0.0	nontarget	4	566432	ö	0	21.0	n/a	n/a	3
568.649	0.0	nontarget	4	568649	x	0	30.0	n/a	n/a	3
570.648	0.0	nontarget	4	570648	i	0	17.0	n/a	n/a	3
572.965	0.0	target	5	572965	z	1	36.0	1	0.4527328	3
573.282	0.5	BAD keypress	1	573282	n/a	n/a	n/a	n/a	n/a	n/a
573.532	0.0	keypress	3	573532	n/a	n/a	n/a	n/a	n/a	n/a
575.232	0.0	target	5	575232	t	1	42.0	1	0.4420033	3
575.548	0.5	BAD keypress	1	575548	n/a	n/a	n/a	n/a	n/a	n/a
575.798	0.0	keypress	3	575798	n/a	n/a	n/a	n/a	n/a	n/a
577.448	0.0	nontarget	4	577448	p	0	39.0	n/a	n/a	3
579.565	0.0	nontarget	4	579565	n	0	24.0	n/a	n/a	3
581.915	0.0	nontarget	4	581915	j	0	38.0	n/a	n/a	3
584.181	0.0	nontarget	4	584181	ß	0	33.0	n/a	n/a	3
586.681	0.0	nontarget	4	586681	c	0	47.0	n/a	n/a	3
589.048	0.0	nontarget	4	589048	e	0	39.0	n/a	n/a	3
591.448	0.0	nontarget	4	591448	q	0	41.0	n/a	n/a	3
593.531	0.0	nontarget	4	593531	a	0	22.0	n/a	n/a	3
595.747	0.0	nontarget	4	595747	t	0	30.0	n/a	n/a	3
597.897	0.0	nontarget	4	597897	d	0	26.0	n/a	n/a	3
599.847	0.0	nontarget	4	599847	c	0	14.0	n/a	n/a	3
602.03	0.0	nontarget	4	602030	j	0	28.0	n/a	n/a	3
604.114	0.0	nontarget	4	604114	x	0	22.0	n/a	n/a	3
606.164	0.0	nontarget	4	606164	e	0	20.0	n/a	n/a	3
608.23	0.0	target	5	608230	i	1	21.0	1	0.4972425	3
608.614	0.5	BAD keypress	1	608614	n/a	n/a	n/a	n/a	n/a	n/a
608.864	0.0	keypress	3	608864	n/a	n/a	n/a	n/a	n/a	n/a
610.413	0.0	nontarget	4	610413	ö	0	34.0	n/a	n/a	3
612.563	0.0	target	5	612563	t	1	26.0	1	0.4997904	3
612.947	0.5	BAD keypress	1	612947	n/a	n/a	n/a	n/a	n/a	n/a
613.197	0.0	keypress	3	613197	n/a	n/a	n/a	n/a	n/a	n/a
615.013	0.0	nontarget	4	615013	d	0	50.0	n/a	n/a	3
617.546	0.0	nontarget	4	617546	m	0	49.0	n/a	n/a	3
619.863	0.0	nontarget	4	619863	e	0	36.0	n/a	n/a	3
621.93	0.0	nontarget	4	621930	i	0	21.0	n/a	n/a	3
624.296	0.0	nontarget	4	624296	ü	0	39.0	n/a	n/a	3
626.746	0.0	nontarget	4	626746	l	0	44.0	n/a	n/a	3
629.246	0.0	nontarget	4	629246	n	0	47.0	n/a	n/a	3
631.596	0.0	nontarget	4	631596	ß	0	38.0	n/a	n/a	3
633.696	0.0	nontarget	4	633696	x	0	23.0	n/a	n/a	3
636.212	0.0	target	5	636212	m	1	48.0	1	0.4972283	3
636.579	0.5	BAD keypress	1	636579	n/a	n/a	n/a	n/a	n/a	n/a
636.829	0.0	keypress	3	636829	n/a	n/a	n/a	n/a	n/a	n/a
638.279	0.0	target	5	638279	w	1	28.0	1	0.4304963	3
638.596	0.5	BAD keypress	1	638596	n/a	n/a	n/a	n/a	n/a	n/a
638.846	0.0	keypress	3	638846	n/a	n/a	n/a	n/a	n/a	n/a
640.562	0.0	nontarget	4	640562	f	0	43.0	n/a	n/a	3
643.012	0.0	nontarget	4	643012	w	0	44.0	n/a	n/a	3
644.995	0.0	nontarget	4	644995	m	0	16.0	n/a	n/a	3
647.128	0.0	nontarget	4	647128	ö	0	25.0	n/a	n/a	3
649.195	0.0	nontarget	4	649195	v	0	21.0	n/a	n/a	3
651.412	0.0	target	5	651412	z	1	30.0	1	0.4809294	3
651.762	0.5	BAD keypress	1	651762	n/a	n/a	n/a	n/a	n/a	n/a
652.012	0.0	keypress	3	652012	n/a	n/a	n/a	n/a	n/a	n/a
653.262	0.0	nontarget	4	653262	c	0	16.0	n/a	n/a	3
655.411	0.0	nontarget	4	655411	j	0	26.0	n/a	n/a	3
657.461	0.0	nontarget	4	657461	ö	0	20.0	n/a	n/a	3
659.895	0.0	nontarget	4	659895	y	0	43.0	n/a	n/a	3
662.444	0.0	target	5	662444	ü	1	50.0	1	0.4713034	3
662.778	0.5	BAD keypress	1	662778	n/a	n/a	n/a	n/a	n/a	n/a
663.028	0.0	keypress	3	663028	n/a	n/a	n/a	n/a	n/a	n/a
664.594	0.0	nontarget	4	664594	u	0	35.0	n/a	n/a	3
667.028	0.0	nontarget	4	667028	q	0	43.0	n/a	n/a	3
669.494	0.0	nontarget	4	669494	y	0	45.0	n/a	n/a	3
671.461	0.0	target	5	671461	d	1	15.0	1	0.4784648	3
671.827	0.5	BAD keypress	1	671827	n/a	n/a	n/a	n/a	n/a	n/a
672.077	0.0	keypress	3	672077	n/a	n/a	n/a	n/a	n/a	n/a
673.877	0.0	nontarget	4	673877	c	0	49.0	n/a	n/a	3
675.877	0.0	nontarget	4	675877	q	0	17.0	n/a	n/a	3
677.96	0.0	nontarget	4	677960	s	0	22.0	n/a	n/a	3
679.994	0.0	nontarget	4	679994	p	0	19.0	n/a	n/a	3
682.21	0.0	nontarget	4	682210	g	0	30.0	n/a	n/a	3
684.46	0.0	nontarget	4	684460	z	0	32.0	n/a	n/a	3
686.91	0.0	nontarget	4	686910	y	0	44.0	n/a	n/a	3
688.96	0.0	target	5	688960	ü	1	20.0	1	0.418083	3
689.243	0.5	BAD keypress	1	689243	n/a	n/a	n/a	n/a	n/a	n/a
689.493	0.0	keypress	3	689493	n/a	n/a	n/a	n/a	n/a	n/a
690.843	0.0	nontarget	4	690843	r	0	22.0	n/a	n/a	3
692.86	0.0	nontarget	4	692860	h	0	18.0	n/a	n/a	3
694.843	0.0	nontarget	4	694843	y	0	16.0	n/a	n/a	3
696.96	0.0	nontarget	4	696960	d	0	24.0	n/a	n/a	3
698.91	0.0	nontarget	4	698910	a	0	14.0	n/a	n/a	3
700.01	31.148000000000025	BAD_break	2	700010	n/a	n/a	n/a	n/a	n/a	n/a
731.658	0.0	nontarget	4	731658	ü	0	27.0	n/a	n/a	4
733.775	0.0	nontarget	4	733775	i	0	24.0	n/a	n/a	4
736.008	0.0	nontarget	4	736008	h	0	31.0	n/a	n/a	4
738.491	0.0	nontarget	4	738491	n	0	46.0	n/a	n/a	4
740.524	0.0	target	5	740524	k	1	19.0	1	0.4341061	4
740.841	0.5	BAD keypress	1	740841	n/a	n/a	n/a	n/a	n/a	n/a
741.091	0.0	keypress	3	741091	n/a	n/a	n/a	n/a	n/a	n/a
742.358	0.0	nontarget	4	742358	t	0	16.0	n/a	n/a	4
744.908	0.0	nontarget	4	744908	ü	0	50.0	n/a	n/a	4
746.874	0.0	nontarget	4	746874	w	0	15.0	n/a	n/a	4
749.291	0.0	nontarget	4	749291	d	0	42.0	n/a	n/a	4
751.774	0.0	nontarget	4	751774	s	0	46.0	n/a	n/a	4
754.107	0.0	target	5	754107	z	1	37.0	1	0.4345608	4
754.407	0.5	BAD keypress	1	754407	n/a	n/a	n/a	n/a	n/a	n/a
754.657	0.0	keypress	3	754657	n/a	n/a	n/a	n/a	n/a	n/a
756.357	0.0	nontarget	4	756357	n	0	43.0	n/a	n/a	4
758.79	0.0	nontarget	4	758790	ß	0	43.0	n/a	n/a	4
761.123	0.0	nontarget	4	761123	z	0	37.0	n/a	n/a	4
763.523	0.0	nontarget	4	763523	h	0	41.0	n/a	n/a	4
765.623	0.0	nontarget	4	765623	n	0	23.0	n/a	n/a	4
767.74	0.0	nontarget	4	767740	f	0	24.0	n/a	n/a	4
770.19	0.0	nontarget	4	770190	d	0	44.0	n/a	n/a	4
772.723	0.0	nontarget	4	772723	ä	0	49.0	n/a	n/a	4
775.173	0.0	nontarget	4	775173	l	0	44.0	n/a	n/a	4
777.689	0.0	nontarget	4	777689	q	0	48.0	n/a	n/a	4
779.973	0.0	nontarget	4	779973	b	0	34.0	n/a	n/a	4
782.006	0.0	nontarget	4	782006	w	0	19.0	n/a	n/a	4
784.339	0.0	nontarget	4	784339	s	0	37.0	n/a	n/a	4
786.806	0.0	nontarget	4	786806	t	0	45.0	n/a	n/a	4
789.006	0.0	nontarget	4	789006	q	0	29.0	n/a	n/a	4
791.172	0.0	nontarget	4	791172	k	0	27.0	n/a	n/a	4
793.455	0.0	nontarget	4	793455	u	0	34.0	n/a	n/a	4
795.955	0.0	nontarget	4	795955	d	0	47.0	n/a	n/a	4
797.955	0.0	nontarget	4	797955	i	0	17.0	n/a	n/a	4
800.022	0.0	target	5	800022	ä	1	21.0	1	0.4367963	4
800.339	0.5	BAD keypress	1	800339	n/a	n/a	n/a	n/a	n/a	n/a
800.589	0.0	keypress	3	800589	n/a	n/a	n/a	n/a	n/a	n/a
802.005	0.0	nontarget	4	802005	s	0	26.0	n/a	n/a	4
804.005	0.0	target	5	804005	s	1	17.0	1	0.4852864	4
804.372	0.5	BAD keypress	1	804372	n/a	n/a	n/a	n/a	n/a	n/a
804.622	0.0	keypress	3	804622	n/a	n/a	n/a	n/a	n/a	n/a
806.322	0.0	nontarget	4	806322	l	0	43.0	n/a	n/a	4
808.271	0.0	nontarget	4	808271	v	0	14.0	n/a	n/a	4
810.438	0.0	nontarget	4	810438	j	0	27.0	n/a	n/a	4
812.388	0.0	nontarget	4	812388	w	0	14.0	n/a	n/a	4
814.438	0.0	nontarget	4	814438	e	0	20.0	n/a	n/a	4
816.454	0.0	nontarget	4	816454	b	0	18.0	n/a	n/a	4
818.971	0.0	target	5	818971	u	1	48.0	1	0.3983512	4
819.238	0.5	BAD keypress	1	819238	n/a	n/a	n/a	n/a	n/a	n/a
819.488	0.0	keypress	3	819488	n/a	n/a	n/a	n/a	n/a	n/a
820.888	0.0	nontarget	4	820888	x	0	24.0	n/a	n/a	4
823.287	0.0	nontarget	4	823287	g	0	41.0	n/a	n/a	4
825.354	0.0	nontarget	4	825354	q	0	21.0	n/a	n/a	4
827.521	0.0	nontarget	4	827521	b	0	27.0	n/a	n/a	4
829.937	0.0	target	5	829937	a	1	42.0	1	0.4234829	4
830.221	0.5	BAD keypress	1	830221	n/a	n/a	n/a	n/a	n/a	n/a
830.471	0.0	keypress	3	830471	n/a	n/a	n/a	n/a	n/a	n/a
831.87	0.0	nontarget	4	831870	i	0	25.0	n/a	n/a	4
834.42	0.0	nontarget	4	834420	r	0	50.0	n/a	n/a	4
836.587	0.0	nontarget	4	836587	v	0	27.0	n/a	n/a	4
838.603	0.0	nontarget	4	838603	ö	0	18.0	n/a	n/a	4
840.787	0.0	nontarget	4	840787	b	0	28.0	n/a	n/a	4
843.337	0.0	nontarget	4	843337	e	0	50.0	n/a	n/a	4
845.42	0.0	nontarget	4	845420	ß	0	22.0	n/a	n/a	4
847.97	0.0	nontarget	4	847970	ä	0	50.0	n/a	n/a	4
850.07	0.0	target	5	850070	z	1	23.0	1	0.4176689	4
850.353	0.5	BAD keypress	1	850353	n/a	n/a	n/a	n/a	n/a	n/a
850.603	0.0	keypress	3	850603	n/a	n/a	n/a	n/a	n/a	n/a
852.253	0.0	nontarget	4	852253	ö	0	40.0	n/a	n/a	4
854.519	0.0	nontarget	4	854519	t	0	33.0	n/a	n/a	4
856.919	0.0	target	5	856919	i	1	41.0	1	0.4634949	4
857.286	0.5	BAD keypress	1	857286	n/a	n/a	n/a	n/a	n/a	n/a
857.536	0.0	keypress	3	857536	n/a	n/a	n/a	n/a	n/a	n/a
858.986	0.0	nontarget	4	858986	v	0	28.0	n/a	n/a	4
861.202	0.0	nontarget	4	861202	d	0	30.0	n/a	n/a	4
863.686	0.0	nontarget	4	863686	p	0	46.0	n/a	n/a	4
866.202	0.0	nontarget	4	866202	z	0	48.0	n/a	n/a	4
868.536	0.0	nontarget	4	868536	ä	0	37.0	n/a	n/a	4
870.802	0.0	nontarget	4	870802	g	0	33.0	n/a	n/a	4
872.785	0.0	nontarget	4	872785	ü	0	16.0	n/a	n/a	4
874.969	0.0	target	5	874969	s	1	28.0	1	0.4451149	4
875.302	0.5	BAD keypress	1	875302	n/a	n/a	n/a	n/a	n/a	n/a
875.552	0.0	keypress	3	875552	n/a	n/a	n/a	n/a	n/a	n/a
876.818	0.0	target	5	876818	d	1	17.0	1	0.4030828	4
877.085	0.5	BAD keypress	1	877085	n/a	n/a	n/a	n/a	n/a	n/a
877.335	0.0	keypress	3	877335	n/a	n/a	n/a	n/a	n/a	n/a
878.435	142.02699999999993	BAD_break	2	878435	n/a	n/a	n/a	n/a	n/a	n/a
1020.962	0.0	nontarget	4	1020962	i	0	38.0	n/a	n/a	5
1022.962	0.0	nontarget	4	1022962	j	0	17.0	n/a	n/a	5
1025.379	0.0	nontarget	4	1025379	w	0	42.0	n/a	n/a	5
1027.345	0.0	nontarget	4	1027345	n	0	15.0	n/a	n/a	5
1029.645	0.0	nontarget	4	1029645	e	0	35.0	n/a	n/a	5
1031.612	0.0	nontarget	4	1031612	ß	0	15.0	n/a	n/a	5
1033.728	0.0	target	5	1033728	ä	1	24.0	1	0.4267922	5
1034.045	0.5	BAD keypress	1	1034045	n/a	n/a	n/a	n/a	n/a	n/a
1034.295	0.0	keypress	3	1034295	n/a	n/a	n/a	n/a	n/a	n/a
1035.895	0.0	nontarget	4	1035895	a	0	36.0	n/a	n/a	5
1037.961	0.0	nontarget	4	1037961	e	0	21.0	n/a	n/a	5
1040.295	0.0	nontarget	4	1040295	ü	0	37.0	n/a	n/a	5
1042.611	0.0	target	5	1042611	q	1	36.0	1	0.4712364	5
1042.945	0.5	BAD keypress	1	1042945	n/a	n/a	n/a	n/a	n/a	n/a
1043.195	0.0	keypress	3	1043195	n/a	n/a	n/a	n/a	n/a	n/a
1044.761	0.0	nontarget	4	1044761	r	0	35.0	n/a	n/a	5
1047.194	0.0	nontarget	4	1047194	o	0	43.0	n/a	n/a	5
1049.344	0.0	nontarget	4	1049344	u	0	26.0	n/a	n/a	5
1051.728	0.0	nontarget	4	1051728	g	0	40.0	n/a	n/a	5
1053.727	0.0	target	5	1053727	q	1	17.0	1	0.4262453	5
1054.028	0.5	BAD keypress	1	1054028	n/a	n/a	n/a	n/a	n/a	n/a
1054.278	0.0	keypress	3	1054278	n/a	n/a	n/a	n/a	n/a	n/a
1055.861	0.0	nontarget	4	1055861	w	0	36.0	n/a	n/a	5
1057.977	0.0	nontarget	4	1057977	y	0	24.0	n/a	n/a	5
1060.494	0.0	target	5	1060494	ä	1	48.0	1	0.4434582	5
1060.844	0.5	BAD keypress	1	1060844	n/a	n/a	n/a	n/a	n/a	n/a
1061.094	0.0	keypress	3	1061094	n/a	n/a	n/a	n/a	n/a	n/a
1062.86	0.0	nontarget	4	1062860	q	0	46.0	n/a	n/a	5
1065.294	0.0	nontarget	4	1065294	w	0	43.0	n/a	n/a	5
1067.727	0.0	target	5	1067727	k	1	43.0	1	0.4419082	5
1068.027	0.5	BAD keypress	1	1068027	n/a	n/a	n/a	n/a	n/a	n/a
1068.277	0.0	keypress	3	1068277	n/a	n/a	n/a	n/a	n/a	n/a
1069.76	0.0	nontarget	4	1069760	g	0	30.0	n/a	n/a	5
1071.843	0.0	target	5	1071843	w	1	22.0	1	0.4051597	5
1072.127	0.5	BAD keypress	1	1072127	n/a	n/a	n/a	n/a	n/a	n/a
1072.377	0.0	keypress	3	1072377	n/a	n/a	n/a	n/a	n/a	n/a
1073.927	0.0	nontarget	4	1073927	a	0	34.0	n/a	n/a	5
1076.076	0.0	nontarget	4	1076076	v	0	26.0	n/a	n/a	5
1078.476	0.0	nontarget	4	1078476	z	0	41.0	n/a	n/a	5
1080.993	0.0	nontarget	4	1080993	f	0	48.0	n/a	n/a	5
1083.36	0.0	target	5	1083360	o	1	39.0	1	0.4242147	5
1083.626	0.5	BAD keypress	1	1083626	n/a	n/a	n/a	n/a	n/a	n/a
1083.876	0.0	keypress	3	1083876	n/a	n/a	n/a	n/a	n/a	n/a
1085.709	0.0	nontarget	4	1085709	i	0	50.0	n/a	n/a	5
1087.976	0.0	nontarget	4	1087976	a	0	33.0	n/a	n/a	5
1090.143	0.0	nontarget	4	1090143	ö	0	27.0	n/a	n/a	5
1092.576	0.0	nontarget	4	1092576	u	0	43.0	n/a	n/a	5
1094.642	0.0	nontarget	4	1094642	t	0	21.0	n/a	n/a	5
1096.992	0.0	target	5	1096992	f	1	38.0	1	0.4706186	5
1097.342	0.5	BAD keypress	1	1097342	n/a	n/a	n/a	n/a	n/a	n/a
1097.592	0.0	keypress	3	1097592	n/a	n/a	n/a	n/a	n/a	n/a
1099.159	0.0	nontarget	4	1099159	z	0	35.0	n/a	n/a	5
1101.659	0.0	nontarget	4	1101659	j	0	47.0	n/a	n/a	5
1103.609	0.0	nontarget	4	1103609	c	0	14.0	n/a	n/a	5
1105.909	0.0	nontarget	4	1105909	n	0	35.0	n/a	n/a	5
1108.408	0.0	nontarget	4	1108408	g	0	47.0	n/a	n/a	5
1110.458	0.0	nontarget	4	1110458	h	0	20.0	n/a	n/a	5
1112.625	0.0	nontarget	4	1112625	c	0	27.0	n/a	n/a	5
1115.025	0.0	nontarget	4	1115025	f	0	41.0	n/a	n/a	5
1117.208	0.0	target	5	1117208	f	1	28.0	1	0.4615488	5
1117.541	0.5	BAD keypress	1	1117541	n/a	n/a	n/a	n/a	n/a	n/a
1117.791	0.0	keypress	3	1117791	n/a	n/a	n/a	n/a	n/a	n/a
1119.475	0.0	nontarget	4	1119475	r	0	42.0	n/a	n/a	5
1121.741	0.0	nontarget	4	1121741	ü	0	33.0	n/a	n/a	5
1124.258	0.0	nontarget	4	1124258	m	0	48.0	n/a	n/a	5
1126.674	0.0	nontarget	4	1126674	d	0	42.0	n/a	n/a	5
1128.974	0.0	target	5	1128974	y	1	35.0	1	0.4865565	5
1129.324	0.5	BAD keypress	1	1129324	n/a	n/a	n/a	n/a	n/a	n/a
1129.574	0.0	keypress	3	1129574	n/a	n/a	n/a	n/a	n/a	n/a
1130.807	0.0	nontarget	4	1130807	l	0	15.0	n/a	n/a	5
1133.024	0.0	nontarget	4	1133024	x	0	30.0	n/a	n/a	5
1135.541	0.0	nontarget	4	1135541	k	0	48.0	n/a	n/a	5
1137.79	0.0	nontarget	4	1137790	q	0	32.0	n/a	n/a	5
1140.324	0.0	nontarget	4	1140324	e	0	49.0	n/a	n/a	5
1142.59	0.0	nontarget	4	1142590	t	0	33.0	n/a	n/a	5
1144.99	0.0	nontarget	4	1144990	n	0	41.0	n/a	n/a	5
1147.023	0.0	nontarget	4	1147023	ß	0	19.0	n/a	n/a	5
1149.323	0.0	nontarget	4	1149323	ü	0	35.0	n/a	n/a	5
1151.407	0.0	nontarget	4	1151407	u	0	22.0	n/a	n/a	5
1153.606	0.0	nontarget	4	1153606	ö	0	29.0	n/a	n/a	5
1155.856	0.0	nontarget	4	1155856	i	0	32.0	n/a	n/a	5
1158.29	0.0	nontarget	4	1158290	a	0	43.0	n/a	n/a	5
1160.606	0.0	nontarget	4	1160606	f	0	36.0	n/a	n/a	5
1162.656	0.0	nontarget	4	1162656	g	0	20.0	n/a	n/a	5
1164.806	0.0	nontarget	4	1164806	o	0	26.0	n/a	n/a	5
1167.356	0.0	nontarget	4	1167356	m	0	50.0	n/a	n/a	5
1168.456	43.315000000000055	BAD_break	2	1168456	n/a	n/a	n/a	n/a	n/a	n/a
1212.271	0.0	nontarget	4	1212271	x	0	43.0	n/a	n/a	6
1214.737	0.0	nontarget	4	1214737	d	0	45.0	n/a	n/a	6
1216.837	0.0	nontarget	4	1216837	e	0	23.0	n/a	n/a	6
1219.32	0.0	nontarget	4	1219320	n	0	46.0	n/a	n/a	6
1221.853	0.0	nontarget	4	1221853	o	0	49.0	n/a	n/a	6
1223.937	0.0	nontarget	4	1223937	s	0	22.0	n/a	n/a	6
1226.22	0.0	nontarget	4	1226220	c	0	34.0	n/a	n/a	6
1228.27	0.0	target	5	1228270	y	1	20.0	1	0.5122455	6
1228.637	0.5	BAD keypress	1	1228637	n/a	n/a	n/a	n/a	n/a	n/a
1228.887	0.0	keypress	3	1228887	n/a	n/a	n/a	n/a	n/a	n/a
1230.17	0.0	target	5	1230170	k	1	18.0	1	0.468108	6
1230.503	0.5	BAD keypress	1	1230503	n/a	n/a	n/a	n/a	n/a	n/a
1230.753	0.0	keypress	3	1230753	n/a	n/a	n/a	n/a	n/a	n/a
1232.303	0.0	nontarget	4	1232303	ä	0	33.0	n/a	n/a	6
1234.37	0.0	nontarget	4	1234370	ß	0	21.0	n/a	n/a	6
1236.586	0.0	target	5	1236586	r	1	30.0	1	0.4353717	6
1236.886	0.5	BAD keypress	1	1236886	n/a	n/a	n/a	n/a	n/a	n/a
1237.136	0.0	keypress	3	1237136	n/a	n/a	n/a	n/a	n/a	n/a
1238.619	0.0	nontarget	4	1238619	k	0	30.0	n/a	n/a	6
1241.086	0.0	nontarget	4	1241086	x	0	45.0	n/a	n/a	6
1243.269	0.0	nontarget	4	1243269	p	0	28.0	n/a	n/a	6
1245.786	0.0	nontarget	4	1245786	z	0	48.0	n/a	n/a	6
1248.252	0.0	nontarget	4	1248252	q	0	45.0	n/a	n/a	6
1250.786	0.0	nontarget	4	1250786	h	0	49.0	n/a	n/a	6
1253.085	0.0	nontarget	4	1253085	e	0	35.0	n/a	n/a	6
1255.469	0.0	nontarget	4	1255469	z	0	40.0	n/a	n/a	6
1257.769	0.0	nontarget	4	1257769	f	0	35.0	n/a	n/a	6
1259.735	0.0	nontarget	4	1259735	ä	0	15.0	n/a	n/a	6
1262.102	0.0	nontarget	4	1262102	m	0	39.0	n/a	n/a	6
1264.352	0.0	target	5	1264352	j	1	32.0	1	0.4600525	6
1264.702	0.5	BAD keypress	1	1264702	n/a	n/a	n/a	n/a	n/a	n/a
1264.952	0.0	keypress	3	1264952	n/a	n/a	n/a	n/a	n/a	n/a
1266.385	0.0	nontarget	4	1266385	w	0	26.0	n/a	n/a	6
1268.485	0.0	nontarget	4	1268485	s	0	23.0	n/a	n/a	6
1270.751	0.0	nontarget	4	1270751	ü	0	33.0	n/a	n/a	6
1272.885	0.0	nontarget	4	1272885	p	0	25.0	n/a	n/a	6
1275.268	0.0	nontarget	4	1275268	e	0	40.0	n/a	n/a	6
1277.351	0.0	nontarget	4	1277351	r	0	22.0	n/a	n/a	6
1279.434	0.0	target	5	1279434	ü	1	22.0	1	0.4643102	6
1279.768	0.5	BAD keypress	1	1279768	n/a	n/a	n/a	n/a	n/a	n/a
1280.018	0.0	keypress	3	1280018	n/a	n/a	n/a	n/a	n/a	n/a
1281.284	0.0	nontarget	4	1281284	b	0	16.0	n/a	n/a	6
1283.601	0.0	nontarget	4	1283601	w	0	36.0	n/a	n/a	6
1285.984	0.0	nontarget	4	1285984	t	0	40.0	n/a	n/a	6
1288.034	0.0	nontarget	4	1288034	ß	0	20.0	n/a	n/a	6
1290.051	0.0	nontarget	4	1290051	e	0	18.0	n/a	n/a	6
1292.35	0.0	nontarget	4	1292350	f	0	35.0	n/a	n/a	6
1294.85	0.0	nontarget	4	1294850	v	0	47.0	n/a	n/a	6
1297.2	0.0	nontarget	4	1297200	s	0	38.0	n/a	n/a	6
1299.75	0.0	nontarget	4	1299750	r	0	50.0	n/a	n/a	6
1301.917	0.0	nontarget	4	1301917	f	0	27.0	n/a	n/a	6
1304.0	0.0	nontarget	4	1304000	ö	0	22.0	n/a	n/a	6
1306.2	0.0	nontarget	4	1306200	e	0	29.0	n/a	n/a	6
1308.7	0.0	nontarget	4	1308700	j	0	47.0	n/a	n/a	6
1311.216	0.0	nontarget	4	1311216	x	0	48.0	n/a	n/a	6
1313.416	0.0	nontarget	4	1313416	h	0	29.0	n/a	n/a	6
1315.466	0.0	nontarget	4	1315466	ö	0	20.0	n/a	n/a	6
1317.433	0.0	nontarget	4	1317433	q	0	15.0	n/a	n/a	6
1319.516	0.0	target	5	1319516	c	1	22.0	1	0.5400386	6
1319.933	0.5	BAD keypress	1	1319933	n/a	n/a	n/a	n/a	n/a	n/a
1320.183	0.0	keypress	3	1320183	n/a	n/a	n/a	n/a	n/a	n/a
1321.716	0.0	nontarget	4	1321716	x	0	33.0	n/a	n/a	6
1323.982	0.0	target	5	1323982	ü	1	33.0	1	0.4732983	6
1324.332	0.5	BAD keypress	1	1324332	n/a	n/a	n/a	n/a	n/a	n/a
1324.582	0.0	keypress	3	1324582	n/a	n/a	n/a	n/a	n/a	n/a
1326.349	0.0	target	5	1326349	x	1	47.0	1	0.4425787	6
1326.682	0.5	BAD keypress	1	1326682	n/a	n/a	n/a	n/a	n/a	n/a
1326.932	0.0	keypress	3	1326932	n/a	n/a	n/a	n/a	n/a	n/a
1328.549	0.0	nontarget	4	1328549	ö	0	38.0	n/a	n/a	6
1330.982	0.0	nontarget	4	1330982	p	0	43.0	n/a	n/a	6
1333.132	0.0	nontarget	4	1333132	n	0	26.0	n/a	n/a	6
1335.515	0.0	target	5	1335515	f	1	40.0	1	0.4917006	6
1335.899	0.5	BAD keypress	1	1335899	n/a	n/a	n/a	n/a	n/a	n/a
1336.149	0.0	keypress	3	1336149	n/a	n/a	n/a	n/a	n/a	n/a
1337.448	0.0	nontarget	4	1337448	o	0	18.0	n/a	n/a	6
1339.482	0.0	nontarget	4	1339482	l	0	19.0	n/a	n/a	6
1341.998	0.0	nontarget	4	1341998	d	0	48.0	n/a	n/a	6
1344.015	0.0	target	5	1344015	q	1	18.0	1	0.4554194	6
1344.348	0.5	BAD keypress	1	1344348	n/a	n/a	n/a	n/a	n/a	n/a
1344.598	0.0	keypress	3	1344598	n/a	n/a	n/a	n/a	n/a	n/a
1346.031	0.0	nontarget	4	1346031	s	0	27.0	n/a	n/a	6
1348.531	0.0	nontarget	4	1348531	ö	0	47.0	n/a	n/a	6
1350.915	0.0	target	5	1350915	h	1	40.0	1	0.4513232	6
1351.231	0.5	BAD keypress	1	1351231	n/a	n/a	n/a	n/a	n/a	n/a
1351.481	0.0	keypress	3	1351481	n/a	n/a	n/a	n/a	n/a	n/a
1353.181	0.0	nontarget	4	1353181	x	0	43.0	n/a	n/a	6
1355.581	0.0	nontarget	4	1355581	g	0	41.0	n/a	n/a	6
1358.048	0.0	target	5	1358048	g	1	45.0	1	0.5978356	6
1358.514	0.5	BAD keypress	1	1358514	n/a	n/a	n/a	n/a	n/a	n/a
1358.764	0.0	keypress	3	1358764	n/a	n/a	n/a	n/a	n/a	n/a
1359.864	15.999000000000253	BAD_break	2	1359864	n/a	n/a	n/a	n/a	n/a	n/a
1376.363	0.0	target	5	1376363	b	1	18.0	1	0.4247602	7
1376.68	0.5	BAD keypress	1	1376680	n/a	n/a	n/a	n/a	n/a	n/a
1376.93	0.0	keypress	3	1376930	n/a	n/a	n/a	n/a	n/a	n/a
1378.18	0.0	nontarget	4	1378180	o	0	15.0	n/a	n/a	7
1380.613	0.0	target	5	1380613	n	1	43.0	1	0.3986351	7
1380.863	0.5	BAD keypress	1	1380863	n/a	n/a	n/a	n/a	n/a	n/a
1381.113	0.0	keypress	3	1381113	n/a	n/a	n/a	n/a	n/a	n/a
1382.48	0.0	target	5	1382480	r	1	23.0	1	0.4198965	7
1382.78	0.5	BAD keypress	1	1382780	n/a	n/a	n/a	n/a	n/a	n/a
1383.03	0.0	keypress	3	1383030	n/a	n/a	n/a	n/a	n/a	n/a
1384.63	0.0	nontarget	4	1384630	v	0	36.0	n/a	n/a	7
1386.696	0.0	nontarget	4	1386696	q	0	21.0	n/a	n/a	7
1389.146	0.0	nontarget	4	1389146	a	0	44.0	n/a	n/a	7
1391.629	0.0	nontarget	4	1391629	t	0	46.0	n/a	n/a	7
1393.796	0.0	nontarget	4	1393796	y	0	27.0	n/a	n/a	7
1395.929	0.0	nontarget	4	1395929	w	0	25.0	n/a	n/a	7
1398.246	0.0	nontarget	4	1398246	u	0	36.0	n/a	n/a	7
1400.696	0.0	nontarget	4	1400696	x	0	44.0	n/a	n/a	7
1402.779	0.0	nontarget	4	1402779	ä	0	22.0	n/a	n/a	7
1404.979	0.0	nontarget	4	1404979	j	0	29.0	n/a	n/a	7
1407.462	0.0	nontarget	4	1407462	n	0	46.0	n/a	n/a	7
1409.645	0.0	nontarget	4	1409645	d	0	28.0	n/a	n/a	7
1411.879	0.0	target	5	1411879	t	1	31.0	1	0.4912197	7
1412.245	0.5	BAD keypress	1	1412245	n/a	n/a	n/a	n/a	n/a	n/a
1412.495	0.0	keypress	3	1412495	n/a	n/a	n/a	n/a	n/a	n/a
1414.195	0.0	nontarget	4	1414195	w	0	43.0	n/a	n/a	7
1416.228	0.0	nontarget	4	1416228	l	0	19.0	n/a	n/a	7
1418.762	0.0	nontarget	4	1418762	ä	0	49.0	n/a	n/a	7
1420.812	0.0	nontarget	4	1420812	t	0	20.0	n/a	n/a	7
1423.045	0.0	nontarget	4	1423045	i	0	31.0	n/a	n/a	7
1425.495	0.0	nontarget	4	1425495	p	0	44.0	n/a	n/a	7
1427.661	0.0	nontarget	4	1427661	e	0	27.0	n/a	n/a	7
1429.644	0.0	nontarget	4	1429644	h	0	16.0	n/a	n/a	7
1432.094	0.0	nontarget	4	1432094	j	0	44.0	n/a	n/a	7
1434.511	0.0	target	5	1434511	j	1	42.0	1	0.5294148	7
1434.911	0.5	BAD keypress	1	1434911	n/a	n/a	n/a	n/a	n/a	n/a
1435.161	0.0	keypress	3	1435161	n/a	n/a	n/a	n/a	n/a	n/a
1436.694	0.0	nontarget	4	1436694	p	0	33.0	n/a	n/a	7
1438.944	0.0	nontarget	4	1438944	s	0	32.0	n/a	n/a	7
1441.261	0.0	nontarget	4	1441261	k	0	36.0	n/a	n/a	7
1443.227	0.0	nontarget	4	1443227	q	0	15.0	n/a	n/a	7
1445.677	0.0	nontarget	4	1445677	z	0	44.0	n/a	n/a	7
1447.91	0.0	nontarget	4	1447910	t	0	31.0	n/a	n/a	7
1449.86	0.0	nontarget	4	1449860	y	0	14.0	n/a	n/a	7
1452.194	0.0	target	5	1452194	e	1	37.0	1	0.4935271	7
1452.544	0.5	BAD keypress	1	1452544	n/a	n/a	n/a	n/a	n/a	n/a
1452.794	0.0	keypress	3	1452794	n/a	n/a	n/a	n/a	n/a	n/a
1454.243	0.0	nontarget	4	1454243	c	0	28.0	n/a	n/a	7
1456.36	0.0	nontarget	4	1456360	i	0	24.0	n/a	n/a	7
1458.727	0.0	target	5	1458727	j	1	39.0	1	0.4881603	7
1459.077	0.5	BAD keypress	1	1459077	n/a	n/a	n/a	n/a	n/a	n/a
1459.327	0.0	keypress	3	1459327	n/a	n/a	n/a	n/a	n/a	n/a
1461.01	0.0	nontarget	4	1461010	r	0	42.0	n/a	n/a	7
1463.01	0.0	nontarget	4	1463010	n	0	17.0	n/a	n/a	7
1465.51	0.0	nontarget	4	1465510	c	0	47.0	n/a	n/a	7
1467.926	0.0	nontarget	4	1467926	x	0	42.0	n/a	n/a	7
1470.076	0.0	target	5	1470076	o	1	26.0	1	0.4498411	7
1470.393	0.5	BAD keypress	1	1470393	n/a	n/a	n/a	n/a	n/a	n/a
1470.643	0.0	keypress	3	1470643	n/a	n/a	n/a	n/a	n/a	n/a
1472.243	0.0	target	5	1472243	e	1	37.0	1	0.47514	7
1472.576	0.5	BAD keypress	1	1472576	n/a	n/a	n/a	n/a	n/a	n/a
1472.826	0.0	keypress	3	1472826	n/a	n/a	n/a	n/a	n/a	n/a
1474.309	0.0	nontarget	4	1474309	w	0	30.0	n/a	n/a	7
1476.642	0.0	nontarget	4	1476642	v	0	37.0	n/a	n/a	7
1479.042	0.0	nontarget	4	1479042	n	0	41.0	n/a	n/a	7
1481.292	0.0	nontarget	4	1481292	f	0	32.0	n/a	n/a	7
1483.759	0.0	nontarget	4	1483759	ö	0	45.0	n/a	n/a	7
1486.292	0.0	nontarget	4	1486292	l	0	49.0	n/a	n/a	7
1488.275	0.0	nontarget	4	1488275	ß	0	16.0	n/a	n/a	7
1490.242	0.0	nontarget	4	1490242	u	0	15.0	n/a	n/a	7
1492.225	0.0	nontarget	4	1492225	s	0	16.0	n/a	n/a	7
1494.642	0.0	nontarget	4	1494642	ä	0	42.0	n/a	n/a	7
1496.758	0.0	nontarget	4	1496758	n	0	24.0	n/a	n/a	7
1498.908	0.0	nontarget	4	1498908	l	0	26.0	n/a	n/a	7
1501.241	0.0	target	5	1501241	p	1	37.0	1	0.4665108	7
1501.591	0.5	BAD keypress	1	1501591	n/a	n/a	n/a	n/a	n/a	n/a
1501.841	0.0	keypress	3	1501841	n/a	n/a	n/a	n/a	n/a	n/a
1503.058	0.0	target	5	1503058	l	1	14.0	1	0.4417802	7
1503.391	0.5	BAD keypress	1	1503391	n/a	n/a	n/a	n/a	n/a	n/a
1503.641	0.0	keypress	3	1503641	n/a	n/a	n/a	n/a	n/a	n/a
1505.091	0.0	nontarget	4	1505091	g	0	27.0	n/a	n/a	7
1507.174	0.0	nontarget	4	1507174	r	0	22.0	n/a	n/a	7
1509.141	0.0	target	5	1509141	a	1	15.0	1	0.4382545	7
1509.458	0.5	BAD keypress	1	1509458	n/a	n/a	n/a	n/a	n/a	n/a
1509.708	0.0	keypress	3	1509708	n/a	n/a	n/a	n/a	n/a	n/a
1511.341	0.0	nontarget	4	1511341	w	0	39.0	n/a	n/a	7
1513.707	0.0	target	5	1513707	n	1	39.0	1	0.4154409	7
1513.974	0.5	BAD keypress	1	1513974	n/a	n/a	n/a	n/a	n/a	n/a
1514.224	0.0	keypress	3	1514224	n/a	n/a	n/a	n/a	n/a	n/a
1515.707	0.0	target	5	1515707	p	1	30.0	1	0.3994651	7
1515.991	0.5	BAD keypress	1	1515991	n/a	n/a	n/a	n/a	n/a	n/a
1516.241	0.0	keypress	3	1516241	n/a	n/a	n/a	n/a	n/a	n/a
1517.757	0.0	nontarget	4	1517757	b	0	31.0	n/a	n/a	7
1520.041	0.0	nontarget	4	1520041	n	0	34.0	n/a	n/a	7
1521.141	30.06500000000005	BAD_break	2	1521141	n/a	n/a	n/a	n/a	n/a	n/a
1551.706	0.0	nontarget	4	1551706	r	0	21.0	n/a	n/a	8
1553.772	0.0	nontarget	4	1553772	d	0	21.0	n/a	n/a	8
1556.206	0.0	nontarget	4	1556206	ü	0	43.0	n/a	n/a	8
1558.289	0.0	nontarget	4	1558289	ä	0	22.0	n/a	n/a	8
1560.522	0.0	nontarget	4	1560522	s	0	31.0	n/a	n/a	8
1562.589	0.0	target	5	1562589	t	1	21.0	1	0.4910599	8
1562.939	0.5	BAD keypress	1	1562939	n/a	n/a	n/a	n/a	n/a	n/a
1563.189	0.0	keypress	3	1563189	n/a	n/a	n/a	n/a	n/a	n/a
1564.672	0.0	nontarget	4	1564672	h	0	29.0	n/a	n/a	8
1566.972	0.0	nontarget	4	1566972	u	0	35.0	n/a	n/a	8
1569.272	0.0	nontarget	4	1569272	v	0	35.0	n/a	n/a	8
1571.605	0.0	nontarget	4	1571605	k	0	37.0	n/a	n/a	8
1574.088	0.0	nontarget	4	1574088	i	0	46.0	n/a	n/a	8
1576.605	0.0	nontarget	4	1576605	b	0	48.0	n/a	n/a	8
1578.988	0.0	target	5	1578988	c	1	40.0	1	0.4745245	8
1579.321	0.5	BAD keypress	1	1579321	n/a	n/a	n/a	n/a	n/a	n/a
1579.571	0.0	keypress	3	1579571	n/a	n/a	n/a	n/a	n/a	n/a
1581.321	0.0	nontarget	4	1581321	v	0	46.0	n/a	n/a	8
1583.788	0.0	nontarget	4	1583788	t	0	45.0	n/a	n/a	8
1585.888	0.0	nontarget	4	1585888	d	0	23.0	n/a	n/a	8
1588.188	0.0	nontarget	4	1588188	ß	0	35.0	n/a	n/a	8
1590.387	0.0	nontarget	4	1590387	ö	0	29.0	n/a	n/a	8
1592.404	0.0	nontarget	4	1592404	o	0	18.0	n/a	n/a	8
1594.454	0.0	nontarget	4	1594454	v	0	20.0	n/a	n/a	8
1596.837	0.0	nontarget	4	1596837	s	0	40.0	n/a	n/a	8
1598.987	0.0	nontarget	4	1598987	i	0	26.0	n/a	n/a	8
1601.037	0.0	nontarget	4	1601037	l	0	20.0	n/a	n/a	8
1603.237	0.0	nontarget	4	1603237	ä	0	29.0	n/a	n/a	8
1605.47	0.0	nontarget	4	1605470	c	0	31.0	n/a	n/a	8
1607.837	0.0	nontarget	4	1607837	u	0	39.0	n/a	n/a	8
1609.87	0.0	nontarget	4	1609870	t	0	19.0	n/a	n/a	8
1612.42	0.0	nontarget	4	1612420	ß	0	50.0	n/a	n/a	8
1614.736	0.0	nontarget	4	1614736	h	0	36.0	n/a	n/a	8
1617.07	0.0	nontarget	4	1617070	f	0	37.0	n/a	n/a	8
1619.02	0.0	nontarget	4	1619020	ö	0	14.0	n/a	n/a	8
1621.103	0.0	target	5	1621103	k	1	22.0	1	0.4689736	8
1621.47	0.5	BAD keypress	1	1621470	n/a	n/a	n/a	n/a	n/a	n/a
1621.72	0.0	keypress	3	1621720	n/a	n/a	n/a	n/a	n/a	n/a
1623.336	0.0	nontarget	4	1623336	i	0	38.0	n/a	n/a	8
1625.753	0.0	nontarget	4	1625753	o	0	42.0	n/a	n/a	8
1627.953	0.0	nontarget	4	1627953	ä	0	29.0	n/a	n/a	8
1630.352	0.0	target	5	1630352	u	1	41.0	1	0.4509525	8
1630.686	0.5	BAD keypress	1	1630686	n/a	n/a	n/a	n/a	n/a	n/a
1630.936	0.0	keypress	3	1630936	n/a	n/a	n/a	n/a	n/a	n/a
1632.219	0.0	nontarget	4	1632219	m	0	18.0	n/a	n/a	8
1634.269	0.0	nontarget	4	1634269	y	0	20.0	n/a	n/a	8
1636.386	0.0	nontarget	4	1636386	a	0	24.0	n/a	n/a	8
1638.785	0.0	target	5	1638785	x	1	41.0	1	0.4652037	8
1639.135	0.5	BAD keypress	1	1639135	n/a	n/a	n/a	n/a	n/a	n/a
1639.385	0.0	keypress	3	1639385	n/a	n/a	n/a	n/a	n/a	n/a
1641.102	0.0	target	5	1641102	k	1	44.0	1	0.5965322	8
1641.552	0.5	BAD keypress	1	1641552	n/a	n/a	n/a	n/a	n/a	n/a
1641.802	0.0	keypress	3	1641802	n/a	n/a	n/a	n/a	n/a	n/a
1643.019	0.0	nontarget	4	1643019	e	0	14.0	n/a	n/a	8
1645.518	0.0	nontarget	4	1645518	b	0	47.0	n/a	n/a	8
1648.035	0.0	nontarget	4	1648035	v	0	48.0	n/a	n/a	8
1650.368	0.0	nontarget	4	1650368	i	0	37.0	n/a	n/a	8
1652.518	0.0	nontarget	4	1652518	n	0	26.0	n/a	n/a	8
1654.818	0.0	nontarget	4	1654818	f	0	35.0	n/a	n/a	8
1657.101	0.0	nontarget	4	1657101	s	0	34.0	n/a	n/a	8
1659.251	0.0	nontarget	4	1659251	ü	0	26.0	n/a	n/a	8
1661.251	0.0	nontarget	4	1661251	ä	0	17.0	n/a	n/a	8
1663.201	0.0	nontarget	4	1663201	q	0	14.0	n/a	n/a	8
1665.701	0.0	nontarget	4	1665701	w	0	47.0	n/a	n/a	8
1668.051	0.0	nontarget	4	1668051	g	0	38.0	n/a	n/a	8
1670.084	0.0	nontarget	4	1670084	h	0	19.0	n/a	n/a	8
1672.567	0.0	nontarget	4	1672567	j	0	46.0	n/a	n/a	8
1674.884	0.0	nontarget	4	1674884	z	0	36.0	n/a	n/a	8
1677.134	0.0	nontarget	4	1677134	n	0	32.0	n/a	n/a	8
1679.4	0.0	nontarget	4	1679400	l	0	33.0	n/a	n/a	8
1681.9	0.0	nontarget	4	1681900	ä	0	47.0	n/a	n/a	8
1684.033	0.0	target	5	1684033	r	1	25.0	1	0.5260192	8
1684.434	0.5	BAD keypress	1	1684434	n/a	n/a	n/a	n/a	n/a	n/a
1684.684	0.0	keypress	3	1684684	n/a	n/a	n/a	n/a	n/a	n/a
1685.967	0.0	target	5	1685967	l	1	18.0	1	0.464822	8
1686.333	0.5	BAD keypress	1	1686333	n/a	n/a	n/a	n/a	n/a	n/a
1686.583	0.0	keypress	3	1686583	n/a	n/a	n/a	n/a	n/a	n/a
1688.2	0.0	target	5	1688200	v	1	38.0	1	0.423413	8
1688.5	0.5	BAD keypress	1	1688500	n/a	n/a	n/a	n/a	n/a	n/a
1688.75	0.0	keypress	3	1688750	n/a	n/a	n/a	n/a	n/a	n/a
1690.433	0.0	nontarget	4	1690433	b	0	42.0	n/a	n/a	8
1692.716	0.0	nontarget	4	1692716	c	0	34.0	n/a	n/a	8
1694.866	0.0	nontarget	4	1694866	ü	0	26.0	n/a	n/a	8
1697.216	0.0	target	5	1697216	r	1	38.0	1	0.3985023	8
1697.5	0.5	BAD keypress	1	1697500	n/a	n/a	n/a	n/a	n/a	n/a
1697.75	0.0	keypress	3	1697750	n/a	n/a	n/a	n/a	n/a	n/a
1698.85	124.894	BAD_break	2	1698850	n/a	n/a	n/a	n/a	n/a	n/a
1824.244	0.0	target	5	1824244	s	1	26.0	1	0.4662039	9
1824.577	0.5	BAD keypress	1	1824577	n/a	n/a	n/a	n/a	n/a	n/a
1824.827	0.0	keypress	3	1824827	n/a	n/a	n/a	n/a	n/a	n/a
1826.461	0.0	nontarget	4	1826461	r	0	38.0	n/a	n/a	9
1828.511	0.0	nontarget	4	1828511	t	0	20.0	n/a	n/a	9
1830.977	0.0	nontarget	4	1830977	n	0	45.0	n/a	n/a	9
1832.927	0.0	nontarget	4	1832927	c	0	14.0	n/a	n/a	9
1834.944	0.0	target	5	1834944	w	1	18.0	1	0.4538949	9
1835.277	0.5	BAD keypress	1	1835277	n/a	n/a	n/a	n/a	n/a	n/a
1835.527	0.0	keypress	3	1835527	n/a	n/a	n/a	n/a	n/a	n/a
1836.743	0.0	target	5	1836743	h	1	14.0	1	0.4458905	9
1837.06	0.5	BAD keypress	1	1837060	n/a	n/a	n/a	n/a	n/a	n/a
1837.31	0.0	keypress	3	1837310	n/a	n/a	n/a	n/a	n/a	n/a
1838.877	0.0	nontarget	4	1838877	p	0	34.0	n/a	n/a	9
1841.193	0.0	nontarget	4	1841193	j	0	36.0	n/a	n/a	9
1843.61	0.0	nontarget	4	1843610	c	0	42.0	n/a	n/a	9
1846.16	0.0	nontarget	4	1846160	ä	0	50.0	n/a	n/a	9
1848.226	0.0	nontarget	4	1848226	s	0	21.0	n/a	n/a	9
1850.576	0.0	nontarget	4	1850576	l	0	38.0	n/a	n/a	9
1852.543	0.0	nontarget	4	1852543	e	0	15.0	n/a	n/a	9
1854.709	0.0	target	5	1854709	q	1	27.0	1	0.510819	9
1855.076	0.5	BAD keypress	1	1855076	n/a	n/a	n/a	n/a	n/a	n/a
1855.326	0.0	keypress	3	1855326	n/a	n/a	n/a	n/a	n/a	n/a
1856.876	0.0	nontarget	4	1856876	a	0	34.0	n/a	n/a	9
1858.993	0.0	nontarget	4	1858993	ä	0	24.0	n/a	n/a	9
1861.159	0.0	nontarget	4	1861159	z	0	27.0	n/a	n/a	9
1863.259	0.0	nontarget	4	1863259	b	0	23.0	n/a	n/a	9
1865.309	0.0	nontarget	4	1865309	ü	0	20.0	n/a	n/a	9
1867.459	0.0	nontarget	4	1867459	t	0	26.0	n/a	n/a	9
1869.425	0.0	nontarget	4	1869425	c	0	15.0	n/a	n/a	9
1871.725	0.0	nontarget	4	1871725	g	0	35.0	n/a	n/a	9
1873.942	0.0	nontarget	4	1873942	a	0	30.0	n/a	n/a	9
1876.408	0.0	nontarget	4	1876408	d	0	45.0	n/a	n/a	9
1878.442	0.0	target	5	1878442	x	1	19.0	1	0.4888849	9
1878.808	0.5	BAD keypress	1	1878808	n/a	n/a	n/a	n/a	n/a	n/a
1879.058	0.0	keypress	3	1879058	n/a	n/a	n/a	n/a	n/a	n/a
1880.625	0.0	target	5	1880625	b	1	35.0	1	0.4495025	9
1880.958	0.5	BAD keypress	1	1880958	n/a	n/a	n/a	n/a	n/a	n/a
1881.208	0.0	keypress	3	1881208	n/a	n/a	n/a	n/a	n/a	n/a
1882.791	0.0	nontarget	4	1882791	o	0	35.0	n/a	n/a	9
1885.325	0.0	nontarget	4	1885325	r	0	49.0	n/a	n/a	9
1887.708	0.0	nontarget	4	1887708	ß	0	40.0	n/a	n/a	9
1889.941	0.0	nontarget	4	1889941	t	0	31.0	n/a	n/a	9
1892.024	0.0	nontarget	4	1892024	ü	0	22.0	n/a	n/a	9
1894.091	0.0	nontarget	4	1894091	o	0	21.0	n/a	n/a	9
1896.308	0.0	nontarget	4	1896308	g	0	30.0	n/a	n/a	9
1898.257	0.0	nontarget	4	1898257	h	0	14.0	n/a	n/a	9
1900.307	0.0	nontarget	4	1900307	p	0	20.0	n/a	n/a	9
1902.457	0.0	target	5	1902457	w	1	26.0	1	0.4396801	9
1902.774	0.5	BAD keypress	1	1902774	n/a	n/a	n/a	n/a	n/a	n/a
1903.024	0.0	keypress	3	1903024	n/a	n/a	n/a	n/a	n/a	n/a
1904.807	0.0	nontarget	4	1904807	z	0	48.0	n/a	n/a	9
1906.957	0.0	nontarget	4	1906957	j	0	26.0	n/a	n/a	9
1909.374	0.0	nontarget	4	1909374	p	0	42.0	n/a	n/a	9
1911.424	0.0	nontarget	4	1911424	r	0	20.0	n/a	n/a	9
1913.757	0.0	nontarget	4	1913757	s	0	37.0	n/a	n/a	9
1916.057	0.0	nontarget	4	1916057	c	0	35.0	n/a	n/a	9
1918.457	0.0	nontarget	4	1918457	i	0	41.0	n/a	n/a	9
1920.523	0.0	nontarget	4	1920523	g	0	21.0	n/a	n/a	9
1922.473	0.0	nontarget	4	1922473	a	0	14.0	n/a	n/a	9
1924.706	0.0	nontarget	4	1924706	d	0	31.0	n/a	n/a	9
1927.056	0.0	target	5	1927056	t	1	38.0	1	0.4470763	9
1927.373	0.5	BAD keypress	1	1927373	n/a	n/a	n/a	n/a	n/a	n/a
1927.623	0.0	keypress	3	1927623	n/a	n/a	n/a	n/a	n/a	n/a
1929.206	0.0	nontarget	4	1929206	z	0	36.0	n/a	n/a	9
1931.689	0.0	nontarget	4	1931689	u	0	46.0	n/a	n/a	9
1933.639	0.0	target	5	1933639	p	1	14.0	1	0.423618	9
1933.956	0.5	BAD keypress	1	1933956	n/a	n/a	n/a	n/a	n/a	n/a
1934.206	0.0	keypress	3	1934206	n/a	n/a	n/a	n/a	n/a	n/a
1935.873	0.0	nontarget	4	1935873	s	0	41.0	n/a	n/a	9
1938.339	0.0	nontarget	4	1938339	a	0	45.0	n/a	n/a	9
1940.672	0.0	target	5	1940672	ä	1	37.0	1	0.4301013	9
1940.989	0.5	BAD keypress	1	1940989	n/a	n/a	n/a	n/a	n/a	n/a
1941.239	0.0	keypress	3	1941239	n/a	n/a	n/a	n/a	n/a	n/a
1942.739	0.0	nontarget	4	1942739	ä	0	31.0	n/a	n/a	9
1945.289	0.0	nontarget	4	1945289	l	0	50.0	n/a	n/a	9
1947.622	0.0	target	5	1947622	l	1	37.0	1	0.4879363	9
1948.005	0.5	BAD keypress	1	1948005	n/a	n/a	n/a	n/a	n/a	n/a
1948.255	0.0	keypress	3	1948255	n/a	n/a	n/a	n/a	n/a	n/a
1949.905	0.0	nontarget	4	1949905	e	0	40.0	n/a	n/a	9
1951.872	0.0	target	5	1951872	a	1	15.0	1	0.4137604	9
1952.172	0.5	BAD keypress	1	1952172	n/a	n/a	n/a	n/a	n/a	n/a
1952.422	0.0	keypress	3	1952422	n/a	n/a	n/a	n/a	n/a	n/a
1954.072	0.0	target	5	1954072	ü	1	40.0	1	0.4377391	9
1954.389	0.5	BAD keypress	1	1954389	n/a	n/a	n/a	n/a	n/a	n/a
1954.639	0.0	keypress	3	1954639	n/a	n/a	n/a	n/a	n/a	n/a
1956.072	0.0	nontarget	4	1956072	r	0	27.0	n/a	n/a	9
1958.355	0.0	nontarget	4	1958355	a	0	34.0	n/a	n/a	9
1960.588	0.0	target	5	1960588	v	1	31.0	1	0.4169229	9
1960.888	0.5	BAD keypress	1	1960888	n/a	n/a	n/a	n/a	n/a	n/a
1961.138	0.0	keypress	3	1961138	n/a	n/a	n/a	n/a	n/a	n/a
1962.621	0.0	nontarget	4	1962621	m	0	30.0	n/a	n/a	9
1964.805	0.0	nontarget	4	1964805	ä	0	28.0	n/a	n/a	9
1967.154	0.0	nontarget	4	1967154	u	0	38.0	n/a	n/a	9
1968.254	22.59900000000016	BAD_break	2	1968254	n/a	n/a	n/a	n/a	n/a	n/a
1991.353	0.0	nontarget	4	1991353	k	0	49.0	n/a	n/a	10
1993.72	0.0	nontarget	4	1993720	s	0	39.0	n/a	n/a	10
1996.27	0.0	target	5	1996270	r	1	50.0	1	0.4447785	10
1996.603	0.5	BAD keypress	1	1996603	n/a	n/a	n/a	n/a	n/a	n/a
1996.853	0.0	keypress	3	1996853	n/a	n/a	n/a	n/a	n/a	n/a
1998.386	0.0	nontarget	4	1998386	z	0	32.0	n/a	n/a	10
2000.486	0.0	nontarget	4	2000486	e	0	23.0	n/a	n/a	10
2002.72	0.0	nontarget	4	2002720	r	0	31.0	n/a	n/a	10
2004.736	0.0	nontarget	4	2004736	f	0	18.0	n/a	n/a	10
2007.269	0.0	nontarget	4	2007269	d	0	49.0	n/a	n/a	10
2009.719	0.0	nontarget	4	2009719	q	0	44.0	n/a	n/a	10
2011.869	0.0	nontarget	4	2011869	m	0	26.0	n/a	n/a	10
2013.986	0.0	nontarget	4	2013986	ä	0	24.0	n/a	n/a	10
2016.169	0.0	nontarget	4	2016169	o	0	28.0	n/a	n/a	10
2018.452	0.0	nontarget	4	2018452	e	0	34.0	n/a	n/a	10
2020.719	0.0	nontarget	4	2020719	s	0	33.0	n/a	n/a	10
2023.002	0.0	nontarget	4	2023002	f	0	34.0	n/a	n/a	10
2025.435	0.0	nontarget	4	2025435	x	0	43.0	n/a	n/a	10
2027.785	0.0	nontarget	4	2027785	z	0	38.0	n/a	n/a	10
2029.768	0.0	nontarget	4	2029768	m	0	16.0	n/a	n/a	10
2031.935	0.0	target	5	2031935	m	1	27.0	1	0.4251359	10
2032.235	0.5	BAD keypress	1	2032235	n/a	n/a	n/a	n/a	n/a	n/a
2032.485	0.0	keypress	3	2032485	n/a	n/a	n/a	n/a	n/a	n/a
2034.235	0.0	target	5	2034235	b	1	46.0	1	0.4932087	10
2034.618	0.5	BAD keypress	1	2034618	n/a	n/a	n/a	n/a	n/a	n/a
2034.868	0.0	keypress	3	2034868	n/a	n/a	n/a	n/a	n/a	n/a
2036.102	0.0	nontarget	4	2036102	s	0	15.0	n/a	n/a	10
2038.485	0.0	nontarget	4	2038485	b	0	40.0	n/a	n/a	10
2040.968	0.0	nontarget	4	2040968	m	0	46.0	n/a	n/a	10
2043.485	0.0	target	5	2043485	e	1	48.0	1	0.4430224	10
2043.785	0.5	BAD keypress	1	2043785	n/a	n/a	n/a	n/a	n/a	n/a
2044.035	0.0	keypress	3	2044035	n/a	n/a	n/a	n/a	n/a	n/a
2045.584	0.0	nontarget	4	2045584	q	0	34.0	n/a	n/a	10
2048.018	0.0	nontarget	4	2048018	n	0	43.0	n/a	n/a	10
2050.134	0.0	target	5	2050134	f	1	24.0	1	0.5446887	10
2050.551	0.5	BAD keypress	1	2050551	n/a	n/a	n/a	n/a	n/a	n/a
2050.801	0.0	keypress	3	2050801	n/a	n/a	n/a	n/a	n/a	n/a
2052.401	0.0	target	5	2052401	k	1	37.0	1	0.5021137	10
2052.768	0.5	BAD keypress	1	2052768	n/a	n/a	n/a	n/a	n/a	n/a
2053.018	0.0	keypress	3	2053018	n/a	n/a	n/a	n/a	n/a	n/a
2054.484	0.0	nontarget	4	2054484	g	0	29.0	n/a	n/a	10
2056.467	0.0	nontarget	4	2056467	o	0	16.0	n/a	n/a	10
2058.601	0.0	nontarget	4	2058601	ß	0	25.0	n/a	n/a	10
2060.617	0.0	nontarget	4	2060617	l	0	18.0	n/a	n/a	10
2062.834	0.0	nontarget	4	2062834	g	0	30.0	n/a	n/a	10
2064.85	0.0	nontarget	4	2064850	u	0	18.0	n/a	n/a	10
2067.35	0.0	nontarget	4	2067350	h	0	47.0	n/a	n/a	10
2069.683	0.0	nontarget	4	2069683	m	0	37.0	n/a	n/a	10
2071.833	0.0	nontarget	4	2071833	o	0	26.0	n/a	n/a	10
2073.917	0.0	target	5	2073917	i	1	22.0	1	0.4729635	10
2074.267	0.5	BAD keypress	1	2074267	n/a	n/a	n/a	n/a	n/a	n/a
2074.517	0.0	keypress	3	2074517	n/a	n/a	n/a	n/a	n/a	n/a
2076.083	0.0	nontarget	4	2076083	l	0	35.0	n/a	n/a	10
2078.533	0.0	nontarget	4	2078533	g	0	44.0	n/a	n/a	10
2080.516	0.0	nontarget	4	2080516	x	0	16.0	n/a	n/a	10
2082.749	0.0	nontarget	4	2082749	o	0	31.0	n/a	n/a	10
2085.183	0.0	nontarget	4	2085183	u	0	43.0	n/a	n/a	10
2087.316	0.0	nontarget	4	2087316	d	0	25.0	n/a	n/a	10
2089.683	0.0	nontarget	4	2089683	ü	0	39.0	n/a	n/a	10
2091.866	0.0	nontarget	4	2091866	ö	0	28.0	n/a	n/a	10
2094.199	0.0	nontarget	4	2094199	p	0	37.0	n/a	n/a	10
2096.666	0.0	target	5	2096666	h	1	45.0	1	0.4583166	10
2097.016	0.5	BAD keypress	1	2097016	n/a	n/a	n/a	n/a	n/a	n/a
2097.266	0.0	keypress	3	2097266	n/a	n/a	n/a	n/a	n/a	n/a
2098.849	0.0	target	5	2098849	w	1	36.0	1	0.4510708	10
2099.182	0.5	BAD keypress	1	2099182	n/a	n/a	n/a	n/a	n/a	n/a
2099.432	0.0	keypress	3	2099432	n/a	n/a	n/a	n/a	n/a	n/a
2100.682	0.0	nontarget	4	2100682	o	0	16.0	n/a	n/a	10
2103.015	0.0	nontarget	4	2103015	v	0	37.0	n/a	n/a	10
2104.982	0.0	nontarget	4	2104982	ß	0	15.0	n/a	n/a	10
2107.215	0.0	nontarget	4	2107215	e	0	31.0	n/a	n/a	10
2109.382	0.0	nontarget	4	2109382	s	0	27.0	n/a	n/a	10
2111.815	0.0	target	5	2111815	h	1	43.0	1	0.4439848	10
2112.115	0.5	BAD keypress	1	2112115	n/a	n/a	n/a	n/a	n/a	n/a
2112.365	0.0	keypress	3	2112365	n/a	n/a	n/a	n/a	n/a	n/a
2114.131	0.0	nontarget	4	2114131	m	0	47.0	n/a	n/a	10
2116.365	0.0	nontarget	4	2116365	f	0	31.0	n/a	n/a	10
2118.781	0.0	nontarget	4	2118781	t	0	42.0	n/a	n/a	10
2120.898	0.0	target	5	2120898	y	1	24.0	1	0.41645	10
2121.198	0.5	BAD keypress	1	2121198	n/a	n/a	n/a	n/a	n/a	n/a
2121.448	0.0	keypress	3	2121448	n/a	n/a	n/a	n/a	n/a	n/a
2123.198	0.0	nontarget	4	2123198	ä	0	46.0	n/a	n/a	10
2125.248	0.0	nontarget	4	2125248	o	0	20.0	n/a	n/a	10
2127.731	0.0	nontarget	4	2127731	i	0	46.0	n/a	n/a	10
2130.147	0.0	nontarget	4	2130147	u	0	42.0	n/a	n/a	10
2132.681	0.0	nontarget	4	2132681	ß	0	49.0	n/a	n/a	10
2134.714	0.0	nontarget	4	2134714	f	0	19.0	n/a	n/a	10
2136.68	0.0	nontarget	4	2136680	j	0	15.0	n/a	n/a	10
2137.78	17.266000000000076	BAD_break	2	2137780	n/a	n/a	n/a	n/a	n/a	n/a
2155.546	0.0	nontarget	4	2155546	ä	0	20.0	n/a	n/a	11
2157.73	0.0	nontarget	4	2157730	p	0	28.0	n/a	n/a	11
2159.679	0.0	target	5	2159679	z	1	14.0	1	0.4482009	11
2159.996	0.5	BAD keypress	1	2159996	n/a	n/a	n/a	n/a	n/a	n/a
2160.246	0.0	keypress	3	2160246	n/a	n/a	n/a	n/a	n/a	n/a
2161.979	0.0	nontarget	4	2161979	h	0	44.0	n/a	n/a	11
2164.496	0.0	nontarget	4	2164496	q	0	48.0	n/a	n/a	11
2166.713	0.0	target	5	2166713	o	1	30.0	1	0.4067195	11
2166.996	0.5	BAD keypress	1	2166996	n/a	n/a	n/a	n/a	n/a	n/a
2167.246	0.0	keypress	3	2167246	n/a	n/a	n/a	n/a	n/a	n/a
2168.479	0.0	target	5	2168479	m	1	15.0	1	0.4320505	11
2168.813	0.5	BAD keypress	1	2168813	n/a	n/a	n/a	n/a	n/a	n/a
2169.063	0.0	keypress	3	2169063	n/a	n/a	n/a	n/a	n/a	n/a
2170.846	0.0	nontarget	4	2170846	c	0	48.0	n/a	n/a	11
2172.812	0.0	nontarget	4	2172812	w	0	15.0	n/a	n/a	11
2175.245	0.0	nontarget	4	2175245	ß	0	43.0	n/a	n/a	11
2177.729	0.0	target	5	2177729	b	1	46.0	1	0.397764	11
2178.012	0.5	BAD keypress	1	2178012	n/a	n/a	n/a	n/a	n/a	n/a
2178.262	0.0	keypress	3	2178262	n/a	n/a	n/a	n/a	n/a	n/a
2179.862	0.0	nontarget	4	2179862	m	0	37.0	n/a	n/a	11
2182.229	0.0	target	5	2182229	m	1	39.0	1	0.4097234	11
2182.512	0.5	BAD keypress	1	2182512	n/a	n/a	n/a	n/a	n/a	n/a
2182.762	0.0	keypress	3	2182762	n/a	n/a	n/a	n/a	n/a	n/a
2184.212	0.0	nontarget	4	2184212	h	0	28.0	n/a	n/a	11
2186.662	0.0	target	5	2186662	u	1	44.0	1	0.4402637	11
2186.995	0.5	BAD keypress	1	2186995	n/a	n/a	n/a	n/a	n/a	n/a
2187.245	0.0	keypress	3	2187245	n/a	n/a	n/a	n/a	n/a	n/a
2188.545	0.0	target	5	2188545	i	1	19.0	1	0.4128197	11
2188.845	0.5	BAD keypress	1	2188845	n/a	n/a	n/a	n/a	n/a	n/a
2189.095	0.0	keypress	3	2189095	n/a	n/a	n/a	n/a	n/a	n/a
2190.645	0.0	nontarget	4	2190645	ö	0	34.0	n/a	n/a	11
2193.061	0.0	nontarget	4	2193061	ä	0	42.0	n/a	n/a	11
2195.511	0.0	target	5	2195511	c	1	44.0	1	0.4540685	11
2195.828	0.5	BAD keypress	1	2195828	n/a	n/a	n/a	n/a	n/a	n/a
2196.078	0.0	keypress	3	2196078	n/a	n/a	n/a	n/a	n/a	n/a
2197.528	0.0	nontarget	4	2197528	ü	0	27.0	n/a	n/a	11
2199.978	0.0	nontarget	4	2199978	c	0	44.0	n/a	n/a	11
2202.261	0.0	target	5	2202261	e	1	34.0	1	0.5198144	11
2202.628	0.5	BAD keypress	1	2202628	n/a	n/a	n/a	n/a	n/a	n/a
2202.878	0.0	keypress	3	2202878	n/a	n/a	n/a	n/a	n/a	n/a
2204.094	0.0	nontarget	4	2204094	a	0	14.0	n/a	n/a	11
2206.628	0.0	nontarget	4	2206628	k	0	49.0	n/a	n/a	11
2208.794	0.0	nontarget	4	2208794	o	0	27.0	n/a	n/a	11
2211.227	0.0	nontarget	4	2211227	g	0	43.0	n/a	n/a	11
2213.644	0.0	target	5	2213644	y	1	42.0	1	0.4802386	11
2214.011	0.5	BAD keypress	1	2214011	n/a	n/a	n/a	n/a	n/a	n/a
2214.261	0.0	keypress	3	2214261	n/a	n/a	n/a	n/a	n/a	n/a
2215.91	0.0	nontarget	4	2215910	f	0	40.0	n/a	n/a	11
2218.027	0.0	nontarget	4	2218027	w	0	24.0	n/a	n/a	11
2220.36	0.0	nontarget	4	2220360	y	0	37.0	n/a	n/a	11
2222.593	0.0	nontarget	4	2222593	ß	0	31.0	n/a	n/a	11
2224.927	0.0	nontarget	4	2224927	r	0	37.0	n/a	n/a	11
2227.093	0.0	nontarget	4	2227093	ü	0	27.0	n/a	n/a	11
2229.576	0.0	nontarget	4	2229576	b	0	46.0	n/a	n/a	11
2231.626	0.0	nontarget	4	2231626	h	0	20.0	n/a	n/a	11
2234.026	0.0	nontarget	4	2234026	m	0	41.0	n/a	n/a	11
2236.176	0.0	target	5	2236176	n	1	26.0	1	0.4584198	11
2236.51	0.5	BAD keypress	1	2236510	n/a	n/a	n/a	n/a	n/a	n/a
2236.76	0.0	keypress	3	2236760	n/a	n/a	n/a	n/a	n/a	n/a
2238.443	0.0	nontarget	4	2238443	ü	0	42.0	n/a	n/a	11
2240.743	0.0	nontarget	4	2240743	s	0	35.0	n/a	n/a	11
2242.926	0.0	nontarget	4	2242926	a	0	28.0	n/a	n/a	11
2245.426	0.0	nontarget	4	2245426	j	0	47.0	n/a	n/a	11
2247.859	0.0	nontarget	4	2247859	y	0	43.0	n/a	n/a	11
2250.276	0.0	nontarget	4	2250276	o	0	42.0	n/a	n/a	11
2252.725	0.0	nontarget	4	2252725	n	0	44.0	n/a	n/a	11
2255.192	0.0	nontarget	4	2255192	ü	0	45.0	n/a	n/a	11
2257.242	0.0	nontarget	4	2257242	k	0	20.0	n/a	n/a	11
2259.542	0.0	nontarget	4	2259542	h	0	35.0	n/a	n/a	11
2261.592	0.0	nontarget	4	2261592	r	0	20.0	n/a	n/a	11
2263.975	0.0	nontarget	4	2263975	y	0	40.0	n/a	n/a	11
2266.442	0.0	nontarget	4	2266442	ö	0	45.0	n/a	n/a	11
2268.641	0.0	nontarget	4	2268641	m	0	29.0	n/a	n/a	11
2270.741	0.0	nontarget	4	2270741	c	0	23.0	n/a	n/a	11
2272.758	0.0	nontarget	4	2272758	h	0	18.0	n/a	n/a	11
2275.308	0.0	nontarget	4	2275308	k	0	50.0	n/a	n/a	11
2277.858	0.0	nontarget	4	2277858	o	0	50.0	n/a	n/a	11
2279.841	0.0	nontarget	4	2279841	t	0	16.0	n/a	n/a	11
2282.308	0.0	nontarget	4	2282308	d	0	45.0	n/a	n/a	11
2284.741	0.0	nontarget	4	2284741	x	0	43.0	n/a	n/a	11
2287.174	0.0	nontarget	4	2287174	m	0	43.0	n/a	n/a	11
2289.724	0.0	target	5	2289724	n	1	50.0	1	0.395087	11
2289.991	0.5	BAD keypress	1	2289991	n/a	n/a	n/a	n/a	n/a	n/a
2290.241	0.0	keypress	3	2290241	n/a	n/a	n/a	n/a	n/a	n/a
2291.89	0.0	nontarget	4	2291890	k	0	40.0	n/a	n/a	11
2294.04	0.0	nontarget	4	2294040	a	0	26.0	n/a	n/a	11
2296.507	0.0	nontarget	4	2296507	l	0	45.0	n/a	n/a	11
2298.907	0.0	nontarget	4	2298907	u	0	41.0	n/a	n/a	11
2300.873	0.0	nontarget	4	2300873	j	0	15.0	n/a	n/a	11
2302.907	0.0	nontarget	4	2302907	c	0	19.0	n/a	n/a	11
2304.007	28.382000000000065	BAD_break	2	2304007	n/a	n/a	n/a	n/a	n/a	n/a
2332.889	0.0	nontarget	4	2332889	p	0	17.0	n/a	n/a	12
2335.039	0.0	nontarget	4	2335039	b	0	26.0	n/a	n/a	12
2337.472	0.0	nontarget	4	2337472	t	0	43.0	n/a	n/a	12
2339.438	0.0	nontarget	4	2339438	w	0	15.0	n/a	n/a	12
2341.438	0.0	nontarget	4	2341438	l	0	17.0	n/a	n/a	12
2343.788	0.0	nontarget	4	2343788	v	0	38.0	n/a	n/a	12
2346.055	0.0	nontarget	4	2346055	u	0	33.0	n/a	n/a	12
2348.605	0.0	nontarget	4	2348605	ß	0	50.0	n/a	n/a	12
2350.871	0.0	nontarget	4	2350871	w	0	33.0	n/a	n/a	12
2353.321	0.0	nontarget	4	2353321	t	0	44.0	n/a	n/a	12
2355.421	0.0	nontarget	4	2355421	r	0	23.0	n/a	n/a	12
2357.588	0.0	target	5	2357588	a	1	27.0	1	0.4627949	12
2357.921	0.5	BAD keypress	1	2357921	n/a	n/a	n/a	n/a	n/a	n/a
2358.171	0.0	keypress	3	2358171	n/a	n/a	n/a	n/a	n/a	n/a
2359.821	0.0	nontarget	4	2359821	c	0	39.0	n/a	n/a	12
2362.304	0.0	target	5	2362304	g	1	46.0	1	0.41805542	12
2362.621	0.5	BAD keypress	1	2362621	n/a	n/a	n/a	n/a	n/a	n/a
2362.871	0.0	keypress	3	2362871	n/a	n/a	n/a	n/a	n/a	n/a
2364.204	0.0	target	5	2364204	d	1	21.0	1	0.4058622	12
2364.504	0.5	BAD keypress	1	2364504	n/a	n/a	n/a	n/a	n/a	n/a
2364.754	0.0	keypress	3	2364754	n/a	n/a	n/a	n/a	n/a	n/a
2366.187	0.0	nontarget	4	2366187	r	0	27.0	n/a	n/a	12
2368.62	0.0	target	5	2368620	f	1	43.0	1	0.4372781	12
2368.937	0.5	BAD keypress	1	2368937	n/a	n/a	n/a	n/a	n/a	n/a
2369.187	0.0	keypress	3	2369187	n/a	n/a	n/a	n/a	n/a	n/a
2370.737	0.0	nontarget	4	2370737	g	0	34.0	n/a	n/a	12
2373.17	0.0	nontarget	4	2373170	u	0	43.0	n/a	n/a	12
2375.453	0.0	target	5	2375453	ü	1	34.0	1	0.4037776	12
2375.737	0.5	BAD keypress	1	2375737	n/a	n/a	n/a	n/a	n/a	n/a
2375.987	0.0	keypress	3	2375987	n/a	n/a	n/a	n/a	n/a	n/a
2377.653	0.0	nontarget	4	2377653	j	0	41.0	n/a	n/a	12
2380.02	0.0	nontarget	4	2380020	l	0	39.0	n/a	n/a	12
2382.137	0.0	nontarget	4	2382137	i	0	24.0	n/a	n/a	12
2384.436	0.0	nontarget	4	2384436	z	0	35.0	n/a	n/a	12
2386.536	0.0	nontarget	4	2386536	k	0	23.0	n/a	n/a	12
2388.486	0.0	target	5	2388486	i	1	14.0	1	0.4421239	12
2388.803	0.5	BAD keypress	1	2388803	n/a	n/a	n/a	n/a	n/a	n/a
2389.053	0.0	keypress	3	2389053	n/a	n/a	n/a	n/a	n/a	n/a
2390.47	0.0	nontarget	4	2390470	i	0	26.0	n/a	n/a	12
2392.853	0.0	nontarget	4	2392853	b	0	40.0	n/a	n/a	12
2395.303	0.0	nontarget	4	2395303	n	0	44.0	n/a	n/a	12
2397.486	0.0	nontarget	4	2397486	k	0	28.0	n/a	n/a	12
2399.452	0.0	nontarget	4	2399452	p	0	15.0	n/a	n/a	12
2401.986	0.0	nontarget	4	2401986	y	0	49.0	n/a	n/a	12
2404.152	0.0	nontarget	4	2404152	v	0	27.0	n/a	n/a	12
2406.435	0.0	nontarget	4	2406435	ü	0	34.0	n/a	n/a	12
2408.735	0.0	nontarget	4	2408735	x	0	35.0	n/a	n/a	12
2410.819	0.0	target	5	2410819	h	1	22.0	1	0.4442077	12
2411.152	0.5	BAD keypress	1	2411152	n/a	n/a	n/a	n/a	n/a	n/a
2411.402	0.0	keypress	3	2411402	n/a	n/a	n/a	n/a	n/a	n/a
2412.702	0.0	nontarget	4	2412702	y	0	19.0	n/a	n/a	12
2415.168	0.0	nontarget	4	2415168	z	0	45.0	n/a	n/a	12
2417.668	0.0	target	5	2417668	y	1	47.0	1	0.4580764	12
2418.035	0.5	BAD keypress	1	2418035	n/a	n/a	n/a	n/a	n/a	n/a
2418.285	0.0	keypress	3	2418285	n/a	n/a	n/a	n/a	n/a	n/a
2419.768	0.0	nontarget	4	2419768	n	0	30.0	n/a	n/a	12
2421.735	0.0	nontarget	4	2421735	m	0	15.0	n/a	n/a	12
2424.235	0.0	nontarget	4	2424235	o	0	47.0	n/a	n/a	12
2426.318	0.0	target	5	2426318	q	1	22.0	1	0.4479281	12
2426.635	0.5	BAD keypress	1	2426635	n/a	n/a	n/a	n/a	n/a	n/a
2426.885	0.0	keypress	3	2426885	n/a	n/a	n/a	n/a	n/a	n/a
2428.501	0.0	nontarget	4	2428501	b	0	38.0	n/a	n/a	12
2430.934	0.0	target	5	2430934	t	1	43.0	1	0.4390843	12
2431.251	0.5	BAD keypress	1	2431251	n/a	n/a	n/a	n/a	n/a	n/a
2431.501	0.0	keypress	3	2431501	n/a	n/a	n/a	n/a	n/a	n/a
2433.034	0.0	nontarget	4	2433034	f	0	33.0	n/a	n/a	12
2435.351	0.0	nontarget	4	2435351	k	0	36.0	n/a	n/a	12
2437.817	0.0	nontarget	4	2437817	h	0	45.0	n/a	n/a	12
2440.051	0.0	target	5	2440051	c	1	31.0	1	0.5062176	12
2440.417	0.5	BAD keypress	1	2440417	n/a	n/a	n/a	n/a	n/a	n/a
2440.667	0.0	keypress	3	2440667	n/a	n/a	n/a	n/a	n/a	n/a
2442.051	0.0	nontarget	4	2442051	ä	0	23.0	n/a	n/a	12
2444.567	0.0	nontarget	4	2444567	v	0	48.0	n/a	n/a	12
2446.784	0.0	nontarget	4	2446784	h	0	30.0	n/a	n/a	12
2448.734	0.0	nontarget	4	2448734	b	0	14.0	n/a	n/a	12
2451.167	0.0	nontarget	4	2451167	x	0	43.0	n/a	n/a	12
2453.6	0.0	target	5	2453600	n	1	43.0	1	0.5239172	12
2454.034	0.5	BAD keypress	1	2454034	n/a	n/a	n/a	n/a	n/a	n/a
2454.284	0.0	keypress	3	2454284	n/a	n/a	n/a	n/a	n/a	n/a
2455.817	0.0	nontarget	4	2455817	ü	0	33.0	n/a	n/a	12
2457.85	0.0	nontarget	4	2457850	u	0	19.0	n/a	n/a	12
2460.05	0.0	nontarget	4	2460050	s	0	29.0	n/a	n/a	12
2462.55	0.0	nontarget	4	2462550	q	0	47.0	n/a	n/a	12
2464.75	0.0	nontarget	4	2464750	z	0	29.0	n/a	n/a	12
2467.0	0.0	nontarget	4	2467000	x	0	32.0	n/a	n/a	12
2469.216	0.0	nontarget	4	2469216	k	0	30.0	n/a	n/a	12
2471.283	0.0	nontarget	4	2471283	j	0	21.0	n/a	n/a	12
2473.633	0.0	nontarget	4	2473633	v	0	38.0	n/a	n/a	12
2475.682	0.0	nontarget	4	2475682	r	0	20.0	n/a	n/a	12
2478.016	0.0	target	5	2478016	a	1	37.0	1	0.4266609	12
2478.332	0.5	BAD keypress	1	2478332	n/a	n/a	n/a	n/a	n/a	n/a
2478.582	0.0	keypress	3	2478582	n/a	n/a	n/a	n/a	n/a	n/a
2479.682	54.2810000000004	BAD_break	2	2479682	n/a	n/a	n/a	n/a	n/a	n/a
2534.463	0.0	target	5	2534463	u	1	23.0	1	0.5353048	13
2534.863	0.5	BAD keypress	1	2534863	n/a	n/a	n/a	n/a	n/a	n/a
2535.113	0.0	keypress	3	2535113	n/a	n/a	n/a	n/a	n/a	n/a
2536.463	0.0	nontarget	4	2536463	l	0	21.0	n/a	n/a	13
2538.68	0.0	nontarget	4	2538680	ö	0	30.0	n/a	n/a	13
2540.946	0.0	nontarget	4	2540946	f	0	33.0	n/a	n/a	13
2543.08	0.0	nontarget	4	2543080	o	0	25.0	n/a	n/a	13
2545.629	0.0	nontarget	4	2545629	ß	0	50.0	n/a	n/a	13
2547.613	0.0	nontarget	4	2547613	m	0	16.0	n/a	n/a	13
2549.896	0.0	nontarget	4	2549896	q	0	34.0	n/a	n/a	13
2551.913	0.0	target	5	2551913	j	1	18.0	1	0.5088735	13
2552.313	0.5	BAD keypress	1	2552313	n/a	n/a	n/a	n/a	n/a	n/a
2552.563	0.0	keypress	3	2552563	n/a	n/a	n/a	n/a	n/a	n/a
2553.779	0.0	nontarget	4	2553779	p	0	14.0	n/a	n/a	13
2556.079	0.0	nontarget	4	2556079	w	0	35.0	n/a	n/a	13
2558.246	0.0	nontarget	4	2558246	y	0	27.0	n/a	n/a	13
2560.762	0.0	nontarget	4	2560762	ü	0	48.0	n/a	n/a	13
2562.829	0.0	nontarget	4	2562829	k	0	21.0	n/a	n/a	13
2565.012	0.0	nontarget	4	2565012	j	0	28.0	n/a	n/a	13
2567.112	0.0	target	5	2567112	b	1	23.0	1	0.4444935	13
2567.445	0.5	BAD keypress	1	2567445	n/a	n/a	n/a	n/a	n/a	n/a
2567.695	0.0	keypress	3	2567695	n/a	n/a	n/a	n/a	n/a	n/a
2569.378	0.0	nontarget	4	2569378	ö	0	42.0	n/a	n/a	13
2571.345	0.0	target	5	2571345	l	1	15.0	1	0.48297	13
2571.695	0.5	BAD keypress	1	2571695	n/a	n/a	n/a	n/a	n/a	n/a
2571.945	0.0	keypress	3	2571945	n/a	n/a	n/a	n/a	n/a	n/a
2573.695	0.0	nontarget	4	2573695	y	0	46.0	n/a	n/a	13
2575.895	0.0	nontarget	4	2575895	d	0	29.0	n/a	n/a	13
2578.295	0.0	nontarget	4	2578295	h	0	41.0	n/a	n/a	13
2580.578	0.0	nontarget	4	2580578	q	0	34.0	n/a	n/a	13
2582.595	0.0	nontarget	4	2582595	v	0	18.0	n/a	n/a	13
2585.144	0.0	nontarget	4	2585144	u	0	50.0	n/a	n/a	13
2587.578	0.0	nontarget	4	2587578	i	0	43.0	n/a	n/a	13
2590.028	0.0	nontarget	4	2590028	o	0	44.0	n/a	n/a	13
2592.394	0.0	nontarget	4	2592394	y	0	39.0	n/a	n/a	13
2594.827	0.0	nontarget	4	2594827	h	0	43.0	n/a	n/a	13
2597.227	0.0	nontarget	4	2597227	z	0	41.0	n/a	n/a	13
2599.227	0.0	nontarget	4	2599227	i	0	17.0	n/a	n/a	13
2601.227	0.0	target	5	2601227	g	1	17.0	1	0.4230182	13
2601.544	0.5	BAD keypress	1	2601544	n/a	n/a	n/a	n/a	n/a	n/a
2601.794	0.0	keypress	3	2601794	n/a	n/a	n/a	n/a	n/a	n/a
2603.294	0.0	target	5	2603294	c	1	31.0	1	0.4682842	13
2603.627	0.5	BAD keypress	1	2603627	n/a	n/a	n/a	n/a	n/a	n/a
2603.877	0.0	keypress	3	2603877	n/a	n/a	n/a	n/a	n/a	n/a
2605.694	0.0	nontarget	4	2605694	l	0	50.0	n/a	n/a	13
2608.11	0.0	nontarget	4	2608110	j	0	42.0	n/a	n/a	13
2610.243	0.0	target	5	2610243	x	1	25.0	1	0.382181	13
2610.51	0.5	BAD keypress	1	2610510	n/a	n/a	n/a	n/a	n/a	n/a
2610.76	0.0	keypress	3	2610760	n/a	n/a	n/a	n/a	n/a	n/a
2612.293	0.0	nontarget	4	2612293	a	0	33.0	n/a	n/a	13
2614.726	0.0	nontarget	4	2614726	g	0	43.0	n/a	n/a	13
2616.96	0.0	nontarget	4	2616960	ö	0	31.0	n/a	n/a	13
2619.06	0.0	nontarget	4	2619060	c	0	23.0	n/a	n/a	13
2621.426	0.0	nontarget	4	2621426	h	0	39.0	n/a	n/a	13
2623.726	0.0	nontarget	4	2623726	r	0	35.0	n/a	n/a	13
2626.259	0.0	nontarget	4	2626259	v	0	49.0	n/a	n/a	13
2628.809	0.0	target	5	2628809	a	1	50.0	1	0.4870476	13
2629.159	0.5	BAD keypress	1	2629159	n/a	n/a	n/a	n/a	n/a	n/a
2629.409	0.0	keypress	3	2629409	n/a	n/a	n/a	n/a	n/a	n/a
2631.176	0.0	nontarget	4	2631176	a	0	47.0	n/a	n/a	13
2633.576	0.0	nontarget	4	2633576	e	0	41.0	n/a	n/a	13
2635.626	0.0	target	5	2635626	g	1	20.0	1	0.5661743	13
2636.009	0.5	BAD keypress	1	2636009	n/a	n/a	n/a	n/a	n/a	n/a
2636.259	0.0	keypress	3	2636259	n/a	n/a	n/a	n/a	n/a	n/a
2637.909	0.0	nontarget	4	2637909	o	0	40.0	n/a	n/a	13
2640.359	0.0	target	5	2640359	m	1	44.0	1	0.4247264	13
2640.675	0.5	BAD keypress	1	2640675	n/a	n/a	n/a	n/a	n/a	n/a
2640.925	0.0	keypress	3	2640925	n/a	n/a	n/a	n/a	n/a	n/a
2642.709	0.0	nontarget	4	2642709	y	0	48.0	n/a	n/a	13
2645.125	0.0	nontarget	4	2645125	i	0	42.0	n/a	n/a	13
2647.175	0.0	nontarget	4	2647175	g	0	20.0	n/a	n/a	13
2649.442	0.0	target	5	2649442	d	1	33.0	1	0.4132091	13
2649.725	0.5	BAD keypress	1	2649725	n/a	n/a	n/a	n/a	n/a	n/a
2649.975	0.0	keypress	3	2649975	n/a	n/a	n/a	n/a	n/a	n/a
2651.375	0.0	nontarget	4	2651375	y	0	25.0	n/a	n/a	13
2653.775	0.0	nontarget	4	2653775	s	0	41.0	n/a	n/a	13
2656.141	0.0	nontarget	4	2656141	v	0	39.0	n/a	n/a	13
2658.175	0.0	nontarget	4	2658175	ö	0	19.0	n/a	n/a	13
2660.241	0.0	nontarget	4	2660241	e	0	21.0	n/a	n/a	13
2662.324	0.0	nontarget	4	2662324	w	0	22.0	n/a	n/a	13
2664.524	0.0	nontarget	4	2664524	p	0	29.0	n/a	n/a	13
2666.491	0.0	target	5	2666491	j	1	15.0	1	0.4348147	13
2666.808	0.5	BAD keypress	1	2666808	n/a	n/a	n/a	n/a	n/a	n/a
2667.058	0.0	keypress	3	2667058	n/a	n/a	n/a	n/a	n/a	n/a
2668.657	0.0	nontarget	4	2668657	z	0	37.0	n/a	n/a	13
2670.757	0.0	nontarget	4	2670757	l	0	23.0	n/a	n/a	13
2673.191	0.0	nontarget	4	2673191	y	0	43.0	n/a	n/a	13
2675.457	0.0	nontarget	4	2675457	r	0	33.0	n/a	n/a	13
2677.757	0.0	nontarget	4	2677757	f	0	35.0	n/a	n/a	13
2680.107	0.0	nontarget	4	2680107	b	0	38.0	n/a	n/a	13
2681.207	23.08200000000033	BAD_break	2	2681207	n/a	n/a	n/a	n/a	n/a	n/a
2704.789	0.0	nontarget	4	2704789	y	0	20.0	n/a	n/a	14
2707.322	0.0	nontarget	4	2707322	r	0	49.0	n/a	n/a	14
2709.439	0.0	target	5	2709439	v	1	24.0	1	0.5077579	14
2709.822	0.5	BAD keypress	1	2709822	n/a	n/a	n/a	n/a	n/a	n/a
2710.072	0.0	keypress	3	2710072	n/a	n/a	n/a	n/a	n/a	n/a
2711.589	0.0	nontarget	4	2711589	ä	0	31.0	n/a	n/a	14
2713.772	0.0	nontarget	4	2713772	j	0	28.0	n/a	n/a	14
2715.939	0.0	nontarget	4	2715939	x	0	27.0	n/a	n/a	14
2718.089	0.0	nontarget	4	2718089	g	0	26.0	n/a	n/a	14
2720.539	0.0	target	5	2720539	f	1	44.0	1	0.4474846	14
2720.855	0.5	BAD keypress	1	2720855	n/a	n/a	n/a	n/a	n/a	n/a
2721.105	0.0	keypress	3	2721105	n/a	n/a	n/a	n/a	n/a	n/a
2722.672	0.0	nontarget	4	2722672	b	0	34.0	n/a	n/a	14
2724.655	0.0	nontarget	4	2724655	m	0	16.0	n/a	n/a	14
2726.822	0.0	nontarget	4	2726822	t	0	27.0	n/a	n/a	14
2729.205	0.0	nontarget	4	2729205	x	0	40.0	n/a	n/a	14
2731.238	0.0	target	5	2731238	n	1	19.0	1	0.4032717	14
2731.488	0.5	BAD keypress	1	2731488	n/a	n/a	n/a	n/a	n/a	n/a
2731.738	0.0	keypress	3	2731738	n/a	n/a	n/a	n/a	n/a	n/a
2733.338	0.0	nontarget	4	2733338	r	0	36.0	n/a	n/a	14
2735.471	0.0	target	5	2735471	z	1	25.0	1	0.393856	14
2735.755	0.5	BAD keypress	1	2735755	n/a	n/a	n/a	n/a	n/a	n/a
2736.005	0.0	keypress	3	2736005	n/a	n/a	n/a	n/a	n/a	n/a
2737.488	0.0	target	5	2737488	o	1	30.0	1	0.4571533	14
2737.838	0.5	BAD keypress	1	2737838	n/a	n/a	n/a	n/a	n/a	n/a
2738.088	0.0	keypress	3	2738088	n/a	n/a	n/a	n/a	n/a	n/a
2739.438	0.0	nontarget	4	2739438	k	0	22.0	n/a	n/a	14
2741.388	0.0	target	5	2741388	x	1	14.0	1	0.3649696	14
2741.604	0.5	BAD keypress	1	2741604	n/a	n/a	n/a	n/a	n/a	n/a
2741.854	0.0	keypress	3	2741854	n/a	n/a	n/a	n/a	n/a	n/a
2743.138	0.0	nontarget	4	2743138	v	0	17.0	n/a	n/a	14
2745.121	0.0	nontarget	4	2745121	ü	0	16.0	n/a	n/a	14
2747.571	0.0	nontarget	4	2747571	ß	0	44.0	n/a	n/a	14
2749.887	0.0	nontarget	4	2749887	q	0	36.0	n/a	n/a	14
2752.337	0.0	nontarget	4	2752337	v	0	44.0	n/a	n/a	14
2754.32	0.0	nontarget	4	2754320	b	0	16.0	n/a	n/a	14
2756.62	0.0	target	5	2756620	u	1	35.0	1	0.4273914	14
2756.887	0.5	BAD keypress	1	2756887	n/a	n/a	n/a	n/a	n/a	n/a
2757.137	0.0	keypress	3	2757137	n/a	n/a	n/a	n/a	n/a	n/a
2758.437	0.0	nontarget	4	2758437	c	0	19.0	n/a	n/a	14
2760.72	0.0	nontarget	4	2760720	u	0	34.0	n/a	n/a	14
2762.987	0.0	nontarget	4	2762987	g	0	33.0	n/a	n/a	14
2765.52	0.0	target	5	2765520	y	1	49.0	1	0.4710936	14
2765.853	0.5	BAD keypress	1	2765853	n/a	n/a	n/a	n/a	n/a	n/a
2766.103	0.0	keypress	3	2766103	n/a	n/a	n/a	n/a	n/a	n/a
2767.686	0.0	nontarget	4	2767686	d	0	35.0	n/a	n/a	14
2769.786	0.0	nontarget	4	2769786	m	0	23.0	n/a	n/a	14
2772.103	0.0	nontarget	4	2772103	s	0	36.0	n/a	n/a	14
2774.303	0.0	nontarget	4	2774303	q	0	29.0	n/a	n/a	14
2776.303	0.0	target	5	2776303	r	1	17.0	1	0.423541	14
2776.586	0.5	BAD keypress	1	2776586	n/a	n/a	n/a	n/a	n/a	n/a
2776.836	0.0	keypress	3	2776836	n/a	n/a	n/a	n/a	n/a	n/a
2778.419	0.0	nontarget	4	2778419	ß	0	36.0	n/a	n/a	14
2780.936	0.0	target	5	2780936	l	1	48.0	1	0.4620488	14
2781.253	0.5	BAD keypress	1	2781253	n/a	n/a	n/a	n/a	n/a	n/a
2781.503	0.0	keypress	3	2781503	n/a	n/a	n/a	n/a	n/a	n/a
2783.236	0.0	nontarget	4	2783236	ö	0	45.0	n/a	n/a	14
2785.519	0.0	nontarget	4	2785519	t	0	34.0	n/a	n/a	14
2787.952	0.0	nontarget	4	2787952	f	0	43.0	n/a	n/a	14
2789.919	0.0	nontarget	4	2789919	y	0	15.0	n/a	n/a	14
2792.002	0.0	nontarget	4	2792002	u	0	22.0	n/a	n/a	14
2794.402	0.0	nontarget	4	2794402	b	0	41.0	n/a	n/a	14
2796.869	0.0	nontarget	4	2796869	z	0	45.0	n/a	n/a	14
2799.318	0.0	nontarget	4	2799318	k	0	44.0	n/a	n/a	14
2801.585	0.0	nontarget	4	2801585	ß	0	33.0	n/a	n/a	14
2803.668	0.0	target	5	2803668	q	1	22.0	1	0.4481743	14
2803.968	0.5	BAD keypress	1	2803968	n/a	n/a	n/a	n/a	n/a	n/a
2804.218	0.0	keypress	3	2804218	n/a	n/a	n/a	n/a	n/a	n/a
2805.818	0.0	nontarget	4	2805818	u	0	37.0	n/a	n/a	14
2808.135	0.0	nontarget	4	2808135	v	0	36.0	n/a	n/a	14
2810.668	0.0	nontarget	4	2810668	l	0	49.0	n/a	n/a	14
2812.935	0.0	nontarget	4	2812935	ä	0	33.0	n/a	n/a	14
2815.301	0.0	nontarget	4	2815301	a	0	39.0	n/a	n/a	14
2817.318	0.0	nontarget	4	2817318	e	0	18.0	n/a	n/a	14
2819.418	0.0	nontarget	4	2819418	j	0	23.0	n/a	n/a	14
2821.551	0.0	nontarget	4	2821551	b	0	25.0	n/a	n/a	14
2823.584	0.0	nontarget	4	2823584	i	0	19.0	n/a	n/a	14
2825.951	0.0	nontarget	4	2825951	a	0	39.0	n/a	n/a	14
2828.501	0.0	nontarget	4	2828501	h	0	50.0	n/a	n/a	14
2830.884	0.0	nontarget	4	2830884	p	0	40.0	n/a	n/a	14
2833.084	0.0	nontarget	4	2833084	b	0	29.0	n/a	n/a	14
2835.617	0.0	nontarget	4	2835617	l	0	49.0	n/a	n/a	14
2836.717	13.681999999999787	BAD_break	2	2836717	n/a	n/a	n/a	n/a	n/a	n/a
