onset	duration	trial_type	value	sample	stimulus	target	blank_jitter_frames	accuracy	response_time	block
0.0	143.578	BAD_break	2	0	n/a	n/a	n/a	n/a	n/a	n/a
144.078	0.0	nontarget	4	144078	b	0	36.0	n/a	n/a	1
146.428	0.0	nontarget	4	146428	ß	0	38.0	n/a	n/a	1
148.378	0.0	target	5	148378	l	1	14.0	1	0.590389	1
148.828	0.5	BAD keypress	1	148828	n/a	n/a	n/a	n/a	n/a	n/a
149.078	0.0	keypress	3	149078	n/a	n/a	n/a	n/a	n/a	n/a
150.861	0.0	nontarget	4	150861	e	0	48.0	n/a	n/a	1
153.211	0.0	nontarget	4	153211	ü	0	38.0	n/a	n/a	1
155.328	0.0	nontarget	4	155328	o	0	24.0	n/a	n/a	1
157.311	0.0	target	5	157311	v	1	16.0	0	n/a	1
159.928	0.0	nontarget	4	159928	b	0	23.0	n/a	n/a	1
161.978	0.0	nontarget	4	161978	p	0	20.0	n/a	n/a	1
164.111	0.0	target	5	164111	ü	1	25.0	1	0.4246471	1
164.394	0.5	BAD keypress	1	164394	n/a	n/a	n/a	n/a	n/a	n/a
164.644	0.0	keypress	3	164644	n/a	n/a	n/a	n/a	n/a	n/a
166.127	0.0	nontarget	4	166127	ß	0	30.0	n/a	n/a	1
168.344	0.0	nontarget	4	168344	s	0	30.0	n/a	n/a	1
170.494	0.0	nontarget	4	170494	u	0	26.0	n/a	n/a	1
172.944	0.0	nontarget	4	172944	e	0	44.0	n/a	n/a	1
175.044	0.0	nontarget	4	175044	c	0	23.0	n/a	n/a	1
177.294	0.0	nontarget	4	177294	a	0	32.0	n/a	n/a	1
179.327	0.0	nontarget	4	179327	ß	0	19.0	n/a	n/a	1
181.627	0.0	nontarget	4	181627	y	0	35.0	n/a	n/a	1
184.06	0.0	nontarget	4	184060	h	0	43.0	n/a	n/a	1
186.193	0.0	nontarget	4	186193	w	0	25.0	n/a	n/a	1
188.36	0.0	nontarget	4	188360	m	0	27.0	n/a	n/a	1
190.443	0.0	target	5	190443	o	1	22.0	1	0.4907065	1
190.76	0.5	BAD keypress	1	190760	n/a	n/a	n/a	n/a	n/a	n/a
191.01	0.0	keypress	3	191010	n/a	n/a	n/a	n/a	n/a	n/a
192.743	0.0	target	5	192743	ü	1	45.0	1	0.5426403	1
193.16	0.5	BAD keypress	1	193160	n/a	n/a	n/a	n/a	n/a	n/a
193.41	0.0	keypress	3	193410	n/a	n/a	n/a	n/a	n/a	n/a
194.643	0.0	nontarget	4	194643	u	0	15.0	n/a	n/a	1
197.043	0.0	nontarget	4	197043	i	0	41.0	n/a	n/a	1
199.193	0.0	nontarget	4	199193	h	0	26.0	n/a	n/a	1
201.159	0.0	nontarget	4	201159	m	0	15.0	n/a	n/a	1
203.276	0.0	nontarget	4	203276	u	0	24.0	n/a	n/a	1
205.559	0.0	target	5	205559	y	1	34.0	1	0.4456713	1
205.842	0.5	BAD keypress	1	205842	n/a	n/a	n/a	n/a	n/a	n/a
206.092	0.0	keypress	3	206092	n/a	n/a	n/a	n/a	n/a	n/a
207.459	0.0	nontarget	4	207459	r	0	23.0	n/a	n/a	1
209.592	0.0	nontarget	4	209592	y	0	25.0	n/a	n/a	1
211.942	0.0	nontarget	4	211942	v	0	38.0	n/a	n/a	1
214.409	0.0	nontarget	4	214409	q	0	45.0	n/a	n/a	1
216.442	0.0	target	5	216442	p	1	19.0	1	0.5700897	1
216.842	0.5	BAD keypress	1	216842	n/a	n/a	n/a	n/a	n/a	n/a
217.092	0.0	keypress	3	217092	n/a	n/a	n/a	n/a	n/a	n/a
218.592	0.0	nontarget	4	218592	r	0	31.0	n/a	n/a	1
221.108	0.0	nontarget	4	221108	s	0	48.0	n/a	n/a	1
223.458	0.0	nontarget	4	223458	f	0	38.0	n/a	n/a	1
225.475	0.0	nontarget	4	225475	e	0	18.0	n/a	n/a	1
227.891	0.0	nontarget	4	227891	j	0	42.0	n/a	n/a	1
230.441	0.0	nontarget	4	230441	v	0	50.0	n/a	n/a	1
232.824	0.0	nontarget	4	232824	s	0	40.0	n/a	n/a	1
235.191	0.0	nontarget	4	235191	ä	0	39.0	n/a	n/a	1
237.691	0.0	target	5	237691	j	1	47.0	1	0.4875544	1
238.091	0.5	BAD keypress	1	238091	n/a	n/a	n/a	n/a	n/a	n/a
238.341	0.0	keypress	3	238341	n/a	n/a	n/a	n/a	n/a	n/a
240.124	0.0	nontarget	4	240124	d	0	48.0	n/a	n/a	1
242.607	0.0	nontarget	4	242607	x	0	46.0	n/a	n/a	1
245.141	0.0	nontarget	4	245141	o	0	49.0	n/a	n/a	1
247.391	0.0	nontarget	4	247391	q	0	32.0	n/a	n/a	1
249.391	0.0	target	5	249391	k	1	17.0	1	0.5472672	1
249.791	0.5	BAD keypress	1	249791	n/a	n/a	n/a	n/a	n/a	n/a
250.041	0.0	keypress	3	250041	n/a	n/a	n/a	n/a	n/a	n/a
251.674	0.0	nontarget	4	251674	ü	0	39.0	n/a	n/a	1
253.724	0.0	nontarget	4	253724	g	0	20.0	n/a	n/a	1
256.223	0.0	nontarget	4	256223	r	0	47.0	n/a	n/a	1
258.44	0.0	nontarget	4	258440	ä	0	30.0	n/a	n/a	1
260.673	0.0	nontarget	4	260673	n	0	31.0	n/a	n/a	1
262.857	0.0	nontarget	4	262857	x	0	28.0	n/a	n/a	1
265.306	0.0	nontarget	4	265306	u	0	44.0	n/a	n/a	1
267.44	0.0	nontarget	4	267440	c	0	25.0	n/a	n/a	1
269.573	0.0	nontarget	4	269573	l	0	25.0	n/a	n/a	1
272.039	0.0	nontarget	4	272039	ö	0	45.0	n/a	n/a	1
274.223	0.0	nontarget	4	274223	s	0	28.0	n/a	n/a	1
276.273	0.0	nontarget	4	276273	x	0	20.0	n/a	n/a	1
278.356	0.0	nontarget	4	278356	v	0	22.0	n/a	n/a	1
280.772	0.0	nontarget	4	280772	i	0	42.0	n/a	n/a	1
283.072	0.0	nontarget	4	283072	a	0	35.0	n/a	n/a	1
285.606	0.0	target	5	285606	l	1	49.0	1	0.4737623	1
285.972	0.5	BAD keypress	1	285972	n/a	n/a	n/a	n/a	n/a	n/a
286.222	0.0	keypress	3	286222	n/a	n/a	n/a	n/a	n/a	n/a
287.689	0.0	nontarget	4	287689	g	0	29.0	n/a	n/a	1
289.822	0.0	nontarget	4	289822	i	0	25.0	n/a	n/a	1
290.922	8.515999999999963	BAD_break	2	290922	n/a	n/a	n/a	n/a	n/a	n/a
299.938	0.0	nontarget	4	299938	ß	0	38.0	n/a	n/a	2
302.355	0.0	target	5	302355	u	1	42.0	1	0.4912779	2
302.722	0.5	BAD keypress	1	302722	n/a	n/a	n/a	n/a	n/a	n/a
302.972	0.0	keypress	3	302972	n/a	n/a	n/a	n/a	n/a	n/a
304.305	0.0	nontarget	4	304305	z	0	21.0	n/a	n/a	2
306.605	0.0	target	5	306605	r	1	35.0	1	0.4812542	2
306.971	0.5	BAD keypress	1	306971	n/a	n/a	n/a	n/a	n/a	n/a
307.221	0.0	keypress	3	307221	n/a	n/a	n/a	n/a	n/a	n/a
308.905	0.0	nontarget	4	308905	m	0	42.0	n/a	n/a	2
311.171	0.0	nontarget	4	311171	k	0	33.0	n/a	n/a	2
313.404	0.0	nontarget	4	313404	z	0	31.0	n/a	n/a	2
315.804	0.0	nontarget	4	315804	ä	0	41.0	n/a	n/a	2
318.137	0.0	nontarget	4	318137	ß	0	37.0	n/a	n/a	2
320.504	0.0	nontarget	4	320504	e	0	39.0	n/a	n/a	2
322.671	0.0	target	5	322671	r	1	27.0	1	0.4302231	2
322.971	0.5	BAD keypress	1	322971	n/a	n/a	n/a	n/a	n/a	n/a
323.221	0.0	keypress	3	323221	n/a	n/a	n/a	n/a	n/a	n/a
324.687	0.0	nontarget	4	324687	s	0	29.0	n/a	n/a	2
326.987	0.0	nontarget	4	326987	q	0	35.0	n/a	n/a	2
329.104	0.0	nontarget	4	329104	u	0	24.0	n/a	n/a	2
331.32	0.0	nontarget	4	331320	r	0	30.0	n/a	n/a	2
333.72	0.0	nontarget	4	333720	ß	0	41.0	n/a	n/a	2
336.07	0.0	nontarget	4	336070	j	0	38.0	n/a	n/a	2
338.587	0.0	target	5	338587	d	1	48.0	1	0.4651097	2
338.953	0.5	BAD keypress	1	338953	n/a	n/a	n/a	n/a	n/a	n/a
339.203	0.0	keypress	3	339203	n/a	n/a	n/a	n/a	n/a	n/a
340.936	0.0	target	5	340936	u	1	45.0	1	0.4990598	2
341.287	0.5	BAD keypress	1	341287	n/a	n/a	n/a	n/a	n/a	n/a
341.537	0.0	keypress	3	341537	n/a	n/a	n/a	n/a	n/a	n/a
343.32	0.0	nontarget	4	343320	e	0	48.0	n/a	n/a	2
345.47	0.0	nontarget	4	345470	h	0	26.0	n/a	n/a	2
347.819	0.0	nontarget	4	347819	c	0	38.0	n/a	n/a	2
350.019	0.0	nontarget	4	350019	m	0	26.0	n/a	n/a	2
352.536	0.0	nontarget	4	352536	o	0	48.0	n/a	n/a	2
354.903	0.0	nontarget	4	354903	t	0	39.0	n/a	n/a	2
357.219	0.0	nontarget	4	357219	g	0	36.0	n/a	n/a	2
359.719	0.0	nontarget	4	359719	a	0	47.0	n/a	n/a	2
361.786	0.0	nontarget	4	361786	ä	0	21.0	n/a	n/a	2
364.269	0.0	nontarget	4	364269	x	0	46.0	n/a	n/a	2
366.535	0.0	nontarget	4	366535	m	0	33.0	n/a	n/a	2
368.585	0.0	nontarget	4	368585	e	0	20.0	n/a	n/a	2
371.102	0.0	nontarget	4	371102	h	0	48.0	n/a	n/a	2
373.435	0.0	target	5	373435	ä	1	37.0	0	n/a	2
376.185	0.0	nontarget	4	376185	ü	0	31.0	n/a	n/a	2
378.151	0.0	nontarget	4	378151	o	0	15.0	n/a	n/a	2
380.185	0.0	nontarget	4	380185	ö	0	19.0	n/a	n/a	2
382.351	0.0	nontarget	4	382351	y	0	27.0	n/a	n/a	2
384.435	0.0	nontarget	4	384435	k	0	22.0	n/a	n/a	2
386.784	0.0	nontarget	4	386784	x	0	38.0	n/a	n/a	2
388.768	0.0	nontarget	4	388768	z	0	16.0	n/a	n/a	2
390.734	0.0	nontarget	4	390734	v	0	15.0	n/a	n/a	2
393.201	0.0	target	5	393201	h	1	45.0	1	0.4550424	2
393.501	0.5	BAD keypress	1	393501	n/a	n/a	n/a	n/a	n/a	n/a
393.751	0.0	keypress	3	393751	n/a	n/a	n/a	n/a	n/a	n/a
395.117	0.0	target	5	395117	g	1	23.0	0	n/a	2
397.617	0.0	nontarget	4	397617	d	0	16.0	n/a	n/a	2
400.034	0.0	target	5	400034	ü	1	42.0	1	0.389594	2
400.267	0.5	BAD keypress	1	400267	n/a	n/a	n/a	n/a	n/a	n/a
400.517	0.0	keypress	3	400517	n/a	n/a	n/a	n/a	n/a	n/a
401.75	0.0	nontarget	4	401750	t	0	15.0	n/a	n/a	2
403.984	0.0	target	5	403984	z	1	31.0	1	0.4395169	2
404.267	0.5	BAD keypress	1	404267	n/a	n/a	n/a	n/a	n/a	n/a
404.517	0.0	keypress	3	404517	n/a	n/a	n/a	n/a	n/a	n/a
405.817	0.0	nontarget	4	405817	ß	0	19.0	n/a	n/a	2
408.1	0.0	nontarget	4	408100	n	0	34.0	n/a	n/a	2
410.517	0.0	nontarget	4	410517	a	0	42.0	n/a	n/a	2
412.633	0.0	nontarget	4	412633	q	0	24.0	n/a	n/a	2
414.917	0.0	nontarget	4	414917	p	0	34.0	n/a	n/a	2
416.9	0.0	nontarget	4	416900	w	0	16.0	n/a	n/a	2
418.9	0.0	nontarget	4	418900	n	0	17.0	n/a	n/a	2
421.2	0.0	target	5	421200	q	1	35.0	1	0.4384766	2
421.483	0.5	BAD keypress	1	421483	n/a	n/a	n/a	n/a	n/a	n/a
421.733	0.0	keypress	3	421733	n/a	n/a	n/a	n/a	n/a	n/a
423.033	0.0	nontarget	4	423033	b	0	19.0	n/a	n/a	2
425.216	0.0	nontarget	4	425216	v	0	28.0	n/a	n/a	2
427.666	0.0	nontarget	4	427666	ß	0	44.0	n/a	n/a	2
429.766	0.0	nontarget	4	429766	g	0	23.0	n/a	n/a	2
431.832	0.0	target	5	431832	w	1	21.0	1	0.4608643	2
432.149	0.5	BAD keypress	1	432149	n/a	n/a	n/a	n/a	n/a	n/a
432.399	0.0	keypress	3	432399	n/a	n/a	n/a	n/a	n/a	n/a
434.116	0.0	nontarget	4	434116	c	0	44.0	n/a	n/a	2
436.099	0.0	target	5	436099	d	1	16.0	1	0.418092	2
436.416	0.5	BAD keypress	1	436416	n/a	n/a	n/a	n/a	n/a	n/a
436.666	0.0	keypress	3	436666	n/a	n/a	n/a	n/a	n/a	n/a
438.166	0.0	target	5	438166	ä	1	31.0	1	0.399381	2
438.449	0.5	BAD keypress	1	438449	n/a	n/a	n/a	n/a	n/a	n/a
438.699	0.0	keypress	3	438699	n/a	n/a	n/a	n/a	n/a	n/a
440.432	0.0	nontarget	4	440432	h	0	45.0	n/a	n/a	2
442.582	0.0	nontarget	4	442582	r	0	26.0	n/a	n/a	2
444.665	0.0	nontarget	4	444665	j	0	22.0	n/a	n/a	2
445.765	8.282999999999959	BAD_break	2	445765	n/a	n/a	n/a	n/a	n/a	n/a
454.548	0.0	nontarget	4	454548	s	0	43.0	n/a	n/a	3
456.681	0.0	nontarget	4	456681	k	0	25.0	n/a	n/a	3
458.715	0.0	nontarget	4	458715	c	0	19.0	n/a	n/a	3
461.248	0.0	target	5	461248	d	1	49.0	1	0.4675137	3
461.598	0.5	BAD keypress	1	461598	n/a	n/a	n/a	n/a	n/a	n/a
461.848	0.0	keypress	3	461848	n/a	n/a	n/a	n/a	n/a	n/a
463.081	0.0	nontarget	4	463081	n	0	15.0	n/a	n/a	3
465.364	0.0	nontarget	4	465364	z	0	34.0	n/a	n/a	3
467.398	0.0	target	5	467398	r	1	19.0	1	0.5412991	3
467.781	0.5	BAD keypress	1	467781	n/a	n/a	n/a	n/a	n/a	n/a
468.031	0.0	keypress	3	468031	n/a	n/a	n/a	n/a	n/a	n/a
469.448	0.0	nontarget	4	469448	ü	0	26.0	n/a	n/a	3
471.481	0.0	nontarget	4	471481	v	0	19.0	n/a	n/a	3
473.431	0.0	nontarget	4	473431	n	0	14.0	n/a	n/a	3
475.914	0.0	nontarget	4	475914	a	0	46.0	n/a	n/a	3
478.014	0.0	target	5	478014	m	1	23.0	1	0.4363522	3
478.314	0.5	BAD keypress	1	478314	n/a	n/a	n/a	n/a	n/a	n/a
478.564	0.0	keypress	3	478564	n/a	n/a	n/a	n/a	n/a	n/a
479.88	0.0	target	5	479880	t	1	20.0	1	0.4577104	3
480.247	0.5	BAD keypress	1	480247	n/a	n/a	n/a	n/a	n/a	n/a
480.497	0.0	keypress	3	480497	n/a	n/a	n/a	n/a	n/a	n/a
481.947	0.0	nontarget	4	481947	o	0	28.0	n/a	n/a	3
484.48	0.0	nontarget	4	484480	ß	0	49.0	n/a	n/a	3
486.863	0.0	nontarget	4	486863	p	0	40.0	n/a	n/a	3
489.33	0.0	nontarget	4	489330	w	0	45.0	n/a	n/a	3
491.53	0.0	nontarget	4	491530	k	0	29.0	n/a	n/a	3
493.78	0.0	target	5	493780	c	1	32.0	1	0.4613995	3
494.113	0.5	BAD keypress	1	494113	n/a	n/a	n/a	n/a	n/a	n/a
494.363	0.0	keypress	3	494363	n/a	n/a	n/a	n/a	n/a	n/a
495.896	0.0	target	5	495896	f	1	33.0	1	0.4086236	3
496.23	0.5	BAD keypress	1	496230	n/a	n/a	n/a	n/a	n/a	n/a
496.48	0.0	keypress	3	496480	n/a	n/a	n/a	n/a	n/a	n/a
498.23	0.0	target	5	498230	v	1	46.0	1	0.3952537	3
498.53	0.5	BAD keypress	1	498530	n/a	n/a	n/a	n/a	n/a	n/a
498.78	0.0	keypress	3	498780	n/a	n/a	n/a	n/a	n/a	n/a
500.28	0.0	nontarget	4	500280	w	0	31.0	n/a	n/a	3
502.596	0.0	nontarget	4	502596	m	0	36.0	n/a	n/a	3
504.796	0.0	nontarget	4	504796	j	0	29.0	n/a	n/a	3
507.079	0.0	nontarget	4	507079	s	0	34.0	n/a	n/a	3
509.446	0.0	nontarget	4	509446	f	0	39.0	n/a	n/a	3
511.446	0.0	nontarget	4	511446	k	0	17.0	n/a	n/a	3
513.679	0.0	nontarget	4	513679	r	0	31.0	n/a	n/a	3
515.879	0.0	nontarget	4	515879	e	0	29.0	n/a	n/a	3
517.862	0.0	nontarget	4	517862	o	0	16.0	n/a	n/a	3
520.112	0.0	nontarget	4	520112	a	0	32.0	n/a	n/a	3
522.145	0.0	target	5	522145	i	1	19.0	1	0.5260479	3
522.529	0.5	BAD keypress	1	522529	n/a	n/a	n/a	n/a	n/a	n/a
522.779	0.0	keypress	3	522779	n/a	n/a	n/a	n/a	n/a	n/a
524.545	0.0	nontarget	4	524545	p	0	47.0	n/a	n/a	3
526.745	0.0	nontarget	4	526745	j	0	29.0	n/a	n/a	3
529.162	0.0	target	5	529162	y	1	42.0	1	0.4691769	3
529.528	0.5	BAD keypress	1	529528	n/a	n/a	n/a	n/a	n/a	n/a
529.778	0.0	keypress	3	529778	n/a	n/a	n/a	n/a	n/a	n/a
531.111	0.0	nontarget	4	531111	u	0	21.0	n/a	n/a	3
533.128	0.0	nontarget	4	533128	z	0	18.0	n/a	n/a	3
535.578	0.0	nontarget	4	535578	ä	0	44.0	n/a	n/a	3
537.795	0.0	target	5	537795	p	1	30.0	1	0.4116384	3
538.078	0.5	BAD keypress	1	538078	n/a	n/a	n/a	n/a	n/a	n/a
538.328	0.0	keypress	3	538328	n/a	n/a	n/a	n/a	n/a	n/a
539.678	0.0	nontarget	4	539678	k	0	22.0	n/a	n/a	3
541.944	0.0	nontarget	4	541944	j	0	33.0	n/a	n/a	3
544.194	0.0	nontarget	4	544194	p	0	32.0	n/a	n/a	3
546.677	0.0	target	5	546677	o	1	46.0	1	0.4240829	3
546.978	0.5	BAD keypress	1	546978	n/a	n/a	n/a	n/a	n/a	n/a
547.228	0.0	keypress	3	547228	n/a	n/a	n/a	n/a	n/a	n/a
549.011	0.0	nontarget	4	549011	z	0	48.0	n/a	n/a	3
551.277	0.0	target	5	551277	e	1	33.0	1	0.4639838	3
551.611	0.5	BAD keypress	1	551611	n/a	n/a	n/a	n/a	n/a	n/a
551.861	0.0	keypress	3	551861	n/a	n/a	n/a	n/a	n/a	n/a
553.477	0.0	nontarget	4	553477	ß	0	38.0	n/a	n/a	3
555.794	0.0	nontarget	4	555794	b	0	36.0	n/a	n/a	3
558.094	0.0	nontarget	4	558094	p	0	35.0	n/a	n/a	3
560.627	0.0	nontarget	4	560627	f	0	49.0	n/a	n/a	3
562.777	0.0	nontarget	4	562777	ß	0	26.0	n/a	n/a	3
565.16	0.0	target	5	565160	n	1	40.0	1	0.4363161	3
565.46	0.5	BAD keypress	1	565460	n/a	n/a	n/a	n/a	n/a	n/a
565.71	0.0	keypress	3	565710	n/a	n/a	n/a	n/a	n/a	n/a
567.127	0.0	nontarget	4	567127	d	0	26.0	n/a	n/a	3
569.277	0.0	nontarget	4	569277	ö	0	26.0	n/a	n/a	3
571.643	0.0	nontarget	4	571643	l	0	39.0	n/a	n/a	3
574.06	0.0	nontarget	4	574060	z	0	42.0	n/a	n/a	3
576.026	0.0	nontarget	4	576026	b	0	15.0	n/a	n/a	3
578.543	0.0	nontarget	4	578543	h	0	48.0	n/a	n/a	3
580.993	0.0	nontarget	4	580993	c	0	44.0	n/a	n/a	3
583.093	0.0	target	5	583093	g	1	23.0	1	0.5345161	3
583.526	0.5	BAD keypress	1	583526	n/a	n/a	n/a	n/a	n/a	n/a
583.776	0.0	keypress	3	583776	n/a	n/a	n/a	n/a	n/a	n/a
585.392	0.0	nontarget	4	585392	e	0	38.0	n/a	n/a	3
587.342	0.0	nontarget	4	587342	f	0	14.0	n/a	n/a	3
589.742	0.0	nontarget	4	589742	l	0	41.0	n/a	n/a	3
592.259	0.0	nontarget	4	592259	z	0	48.0	n/a	n/a	3
594.675	0.0	nontarget	4	594675	w	0	42.0	n/a	n/a	3
597.159	0.0	nontarget	4	597159	h	0	46.0	n/a	n/a	3
599.559	0.0	nontarget	4	599559	g	0	41.0	n/a	n/a	3
600.659	13.548999999999978	BAD_break	2	600659	n/a	n/a	n/a	n/a	n/a	n/a
614.708	0.0	target	5	614708	h	1	25.0	1	0.484975	4
615.075	0.5	BAD keypress	1	615075	n/a	n/a	n/a	n/a	n/a	n/a
615.325	0.0	keypress	3	615325	n/a	n/a	n/a	n/a	n/a	n/a
616.674	0.0	nontarget	4	616674	f	0	21.0	n/a	n/a	4
618.674	0.0	target	5	618674	i	1	17.0	1	0.5023508	4
619.058	0.5	BAD keypress	1	619058	n/a	n/a	n/a	n/a	n/a	n/a
619.308	0.0	keypress	3	619308	n/a	n/a	n/a	n/a	n/a	n/a
620.524	0.0	nontarget	4	620524	c	0	14.0	n/a	n/a	4
622.691	0.0	nontarget	4	622691	g	0	27.0	n/a	n/a	4
625.157	0.0	nontarget	4	625157	v	0	45.0	n/a	n/a	4
627.291	0.0	nontarget	4	627291	n	0	25.0	n/a	n/a	4
629.774	0.0	nontarget	4	629774	o	0	46.0	n/a	n/a	4
632.224	0.0	nontarget	4	632224	t	0	44.0	n/a	n/a	4
634.524	0.0	nontarget	4	634524	d	0	35.0	n/a	n/a	4
636.607	0.0	target	5	636607	i	1	22.0	1	0.4405236	4
636.94	0.5	BAD keypress	1	636940	n/a	n/a	n/a	n/a	n/a	n/a
637.19	0.0	keypress	3	637190	n/a	n/a	n/a	n/a	n/a	n/a
638.957	0.0	target	5	638957	n	1	47.0	1	0.5064362	4
639.34	0.5	BAD keypress	1	639340	n/a	n/a	n/a	n/a	n/a	n/a
639.59	0.0	keypress	3	639590	n/a	n/a	n/a	n/a	n/a	n/a
640.807	0.0	nontarget	4	640807	g	0	14.0	n/a	n/a	4
643.14	0.0	nontarget	4	643140	b	0	37.0	n/a	n/a	4
645.623	0.0	nontarget	4	645623	p	0	46.0	n/a	n/a	4
647.99	0.0	nontarget	4	647990	c	0	39.0	n/a	n/a	4
650.056	0.0	nontarget	4	650056	r	0	21.0	n/a	n/a	4
652.14	0.0	nontarget	4	652140	ü	0	22.0	n/a	n/a	4
654.623	0.0	nontarget	4	654623	ä	0	46.0	n/a	n/a	4
657.123	0.0	nontarget	4	657123	f	0	47.0	n/a	n/a	4
659.073	0.0	nontarget	4	659073	n	0	14.0	n/a	n/a	4
661.573	0.0	nontarget	4	661573	b	0	47.0	n/a	n/a	4
663.689	0.0	nontarget	4	663689	c	0	24.0	n/a	n/a	4
666.072	0.0	nontarget	4	666072	y	0	40.0	n/a	n/a	4
668.272	0.0	nontarget	4	668272	e	0	29.0	n/a	n/a	4
670.639	0.0	nontarget	4	670639	ü	0	39.0	n/a	n/a	4
672.705	0.0	nontarget	4	672705	g	0	21.0	n/a	n/a	4
674.722	0.0	nontarget	4	674722	o	0	18.0	n/a	n/a	4
676.839	0.0	nontarget	4	676839	l	0	24.0	n/a	n/a	4
679.272	0.0	target	5	679272	g	1	43.0	1	0.5087218	4
679.705	0.5	BAD keypress	1	679705	n/a	n/a	n/a	n/a	n/a	n/a
679.955	0.0	keypress	3	679955	n/a	n/a	n/a	n/a	n/a	n/a
681.338	0.0	nontarget	4	681338	i	0	24.0	n/a	n/a	4
683.572	0.0	target	5	683572	h	1	31.0	1	0.5126871	4
683.972	0.5	BAD keypress	1	683972	n/a	n/a	n/a	n/a	n/a	n/a
684.222	0.0	keypress	3	684222	n/a	n/a	n/a	n/a	n/a	n/a
686.005	0.0	nontarget	4	686005	r	0	48.0	n/a	n/a	4
688.455	0.0	nontarget	4	688455	ß	0	44.0	n/a	n/a	4
690.771	0.0	nontarget	4	690771	n	0	36.0	n/a	n/a	4
692.888	0.0	nontarget	4	692888	x	0	24.0	n/a	n/a	4
694.838	0.0	nontarget	4	694838	l	0	14.0	n/a	n/a	4
697.321	0.0	nontarget	4	697321	c	0	46.0	n/a	n/a	4
699.588	0.0	nontarget	4	699588	ö	0	33.0	n/a	n/a	4
701.754	0.0	nontarget	4	701754	h	0	27.0	n/a	n/a	4
704.087	0.0	nontarget	4	704087	w	0	37.0	n/a	n/a	4
706.337	0.0	nontarget	4	706337	m	0	32.0	n/a	n/a	4
708.787	0.0	nontarget	4	708787	ü	0	44.0	n/a	n/a	4
711.004	0.0	target	5	711004	b	1	30.0	1	0.4547558	4
711.354	0.5	BAD keypress	1	711354	n/a	n/a	n/a	n/a	n/a	n/a
711.604	0.0	keypress	3	711604	n/a	n/a	n/a	n/a	n/a	n/a
713.204	0.0	nontarget	4	713204	b	0	37.0	n/a	n/a	4
715.387	0.0	target	5	715387	a	1	28.0	1	0.5032889	4
715.787	0.5	BAD keypress	1	715787	n/a	n/a	n/a	n/a	n/a	n/a
716.037	0.0	keypress	3	716037	n/a	n/a	n/a	n/a	n/a	n/a
717.82	0.0	target	5	717820	ä	1	48.0	1	0.4539172	4
718.17	0.5	BAD keypress	1	718170	n/a	n/a	n/a	n/a	n/a	n/a
718.42	0.0	keypress	3	718420	n/a	n/a	n/a	n/a	n/a	n/a
719.687	0.0	nontarget	4	719687	i	0	17.0	n/a	n/a	4
721.903	0.0	nontarget	4	721903	n	0	30.0	n/a	n/a	4
723.92	0.0	target	5	723920	q	1	18.0	1	0.4658025	4
724.253	0.5	BAD keypress	1	724253	n/a	n/a	n/a	n/a	n/a	n/a
724.503	0.0	keypress	3	724503	n/a	n/a	n/a	n/a	n/a	n/a
726.136	0.0	nontarget	4	726136	o	0	39.0	n/a	n/a	4
728.536	0.0	nontarget	4	728536	b	0	41.0	n/a	n/a	4
730.836	0.0	target	5	730836	d	1	35.0	1	0.4928491	4
731.153	0.5	BAD keypress	1	731153	n/a	n/a	n/a	n/a	n/a	n/a
731.403	0.0	keypress	3	731403	n/a	n/a	n/a	n/a	n/a	n/a
732.986	0.0	nontarget	4	732986	v	0	36.0	n/a	n/a	4
735.436	0.0	nontarget	4	735436	ä	0	44.0	n/a	n/a	4
737.553	0.0	nontarget	4	737553	t	0	24.0	n/a	n/a	4
739.536	0.0	nontarget	4	739536	i	0	16.0	n/a	n/a	4
741.519	0.0	nontarget	4	741519	o	0	16.0	n/a	n/a	4
743.719	0.0	nontarget	4	743719	j	0	29.0	n/a	n/a	4
746.052	0.0	nontarget	4	746052	f	0	37.0	n/a	n/a	4
748.285	0.0	target	5	748285	e	1	31.0	1	0.5785132	4
748.735	0.5	BAD keypress	1	748735	n/a	n/a	n/a	n/a	n/a	n/a
748.985	0.0	keypress	3	748985	n/a	n/a	n/a	n/a	n/a	n/a
750.219	0.0	target	5	750219	p	1	15.0	1	0.4370617	4
750.552	0.5	BAD keypress	1	750552	n/a	n/a	n/a	n/a	n/a	n/a
750.802	0.0	keypress	3	750802	n/a	n/a	n/a	n/a	n/a	n/a
752.502	0.0	nontarget	4	752502	i	0	43.0	n/a	n/a	4
754.635	0.0	target	5	754635	m	1	25.0	1	0.5483028	4
755.035	0.5	BAD keypress	1	755035	n/a	n/a	n/a	n/a	n/a	n/a
755.285	0.0	keypress	3	755285	n/a	n/a	n/a	n/a	n/a	n/a
757.085	0.0	nontarget	4	757085	f	0	49.0	n/a	n/a	4
759.085	0.0	nontarget	4	759085	k	0	17.0	n/a	n/a	4
760.185	76.38	BAD_break	2	760185	n/a	n/a	n/a	n/a	n/a	n/a
837.065	0.0	target	5	837065	a	1	17.0	0	n/a	5
839.865	0.0	nontarget	4	839865	t	0	34.0	n/a	n/a	5
842.198	0.0	nontarget	4	842198	j	0	37.0	n/a	n/a	5
844.481	0.0	nontarget	4	844481	o	0	34.0	n/a	n/a	5
846.864	0.0	nontarget	4	846864	i	0	40.0	n/a	n/a	5
849.014	0.0	nontarget	4	849014	c	0	26.0	n/a	n/a	5
851.364	0.0	nontarget	4	851364	ö	0	38.0	n/a	n/a	5
853.398	0.0	nontarget	4	853398	ä	0	19.0	n/a	n/a	5
855.697	0.0	nontarget	4	855697	q	0	35.0	n/a	n/a	5
857.647	0.0	nontarget	4	857647	j	0	14.0	n/a	n/a	5
859.681	0.0	nontarget	4	859681	c	0	19.0	n/a	n/a	5
862.03	0.0	nontarget	4	862030	d	0	38.0	n/a	n/a	5
863.997	0.0	nontarget	4	863997	w	0	15.0	n/a	n/a	5
866.147	0.0	target	5	866147	e	1	26.0	0	n/a	5
868.83	0.0	nontarget	4	868830	h	0	27.0	n/a	n/a	5
871.03	0.0	nontarget	4	871030	j	0	29.0	n/a	n/a	5
873.147	0.0	target	5	873147	w	1	24.0	1	0.4607649	5
873.48	0.5	BAD keypress	1	873480	n/a	n/a	n/a	n/a	n/a	n/a
873.73	0.0	keypress	3	873730	n/a	n/a	n/a	n/a	n/a	n/a
875.33	0.0	nontarget	4	875330	ß	0	37.0	n/a	n/a	5
877.313	0.0	nontarget	4	877313	e	0	16.0	n/a	n/a	5
879.796	0.0	target	5	879796	b	1	46.0	1	0.4345727	5
880.08	0.5	BAD keypress	1	880080	n/a	n/a	n/a	n/a	n/a	n/a
880.33	0.0	keypress	3	880330	n/a	n/a	n/a	n/a	n/a	n/a
881.63	0.0	target	5	881630	x	1	18.0	1	0.4732298	5
881.963	0.5	BAD keypress	1	881963	n/a	n/a	n/a	n/a	n/a	n/a
882.213	0.0	keypress	3	882213	n/a	n/a	n/a	n/a	n/a	n/a
883.763	0.0	nontarget	4	883763	y	0	34.0	n/a	n/a	5
885.946	0.0	nontarget	4	885946	f	0	28.0	n/a	n/a	5
887.929	0.0	nontarget	4	887929	d	0	16.0	n/a	n/a	5
890.029	0.0	nontarget	4	890029	k	0	23.0	n/a	n/a	5
892.312	0.0	target	5	892312	o	1	34.0	1	0.5576487	5
892.729	0.5	BAD keypress	1	892729	n/a	n/a	n/a	n/a	n/a	n/a
892.979	0.0	keypress	3	892979	n/a	n/a	n/a	n/a	n/a	n/a
894.412	0.0	nontarget	4	894412	w	0	27.0	n/a	n/a	5
896.812	0.0	nontarget	4	896812	h	0	41.0	n/a	n/a	5
898.996	0.0	nontarget	4	898996	ß	0	28.0	n/a	n/a	5
901.295	0.0	nontarget	4	901295	x	0	35.0	n/a	n/a	5
903.429	0.0	nontarget	4	903429	q	0	25.0	n/a	n/a	5
905.512	0.0	nontarget	4	905512	h	0	22.0	n/a	n/a	5
907.495	0.0	target	5	907495	r	1	16.0	1	0.4459163	5
907.812	0.5	BAD keypress	1	907812	n/a	n/a	n/a	n/a	n/a	n/a
908.062	0.0	keypress	3	908062	n/a	n/a	n/a	n/a	n/a	n/a
909.462	0.0	nontarget	4	909462	y	0	25.0	n/a	n/a	5
911.845	0.0	nontarget	4	911845	m	0	40.0	n/a	n/a	5
914.012	0.0	nontarget	4	914012	w	0	27.0	n/a	n/a	5
916.228	0.0	nontarget	4	916228	t	0	30.0	n/a	n/a	5
918.445	0.0	nontarget	4	918445	q	0	30.0	n/a	n/a	5
920.661	0.0	nontarget	4	920661	k	0	30.0	n/a	n/a	5
922.878	0.0	nontarget	4	922878	ü	0	30.0	n/a	n/a	5
925.328	0.0	target	5	925328	j	1	44.0	1	0.5481299	5
925.728	0.5	BAD keypress	1	925728	n/a	n/a	n/a	n/a	n/a	n/a
925.978	0.0	keypress	3	925978	n/a	n/a	n/a	n/a	n/a	n/a
927.728	0.0	target	5	927728	r	1	46.0	1	0.4040826	5
928.011	0.5	BAD keypress	1	928011	n/a	n/a	n/a	n/a	n/a	n/a
928.261	0.0	keypress	3	928261	n/a	n/a	n/a	n/a	n/a	n/a
930.078	0.0	nontarget	4	930078	u	0	50.0	n/a	n/a	5
932.127	0.0	nontarget	4	932127	s	0	20.0	n/a	n/a	5
934.327	0.0	nontarget	4	934327	ß	0	29.0	n/a	n/a	5
936.411	0.0	nontarget	4	936411	n	0	22.0	n/a	n/a	5
938.694	0.0	nontarget	4	938694	e	0	34.0	n/a	n/a	5
940.794	0.0	nontarget	4	940794	b	0	23.0	n/a	n/a	5
943.044	0.0	nontarget	4	943044	s	0	32.0	n/a	n/a	5
945.06	0.0	target	5	945060	u	1	18.0	1	0.4622398	5
945.427	0.5	BAD keypress	1	945427	n/a	n/a	n/a	n/a	n/a	n/a
945.677	0.0	keypress	3	945677	n/a	n/a	n/a	n/a	n/a	n/a
947.343	0.0	nontarget	4	947343	ü	0	41.0	n/a	n/a	5
949.493	0.0	nontarget	4	949493	q	0	26.0	n/a	n/a	5
951.61	0.0	nontarget	4	951610	a	0	24.0	n/a	n/a	5
954.026	0.0	nontarget	4	954026	n	0	42.0	n/a	n/a	5
956.56	0.0	nontarget	4	956560	j	0	49.0	n/a	n/a	5
958.993	0.0	nontarget	4	958993	i	0	43.0	n/a	n/a	5
961.06	0.0	nontarget	4	961060	y	0	21.0	n/a	n/a	5
963.109	0.0	nontarget	4	963109	u	0	20.0	n/a	n/a	5
965.093	0.0	target	5	965093	d	1	16.0	1	0.5085573	5
965.509	0.5	BAD keypress	1	965509	n/a	n/a	n/a	n/a	n/a	n/a
965.759	0.0	keypress	3	965759	n/a	n/a	n/a	n/a	n/a	n/a
967.043	0.0	nontarget	4	967043	o	0	18.0	n/a	n/a	5
969.292	0.0	nontarget	4	969292	y	0	32.0	n/a	n/a	5
971.659	0.0	nontarget	4	971659	u	0	39.0	n/a	n/a	5
973.676	0.0	nontarget	4	973676	a	0	18.0	n/a	n/a	5
975.692	0.0	nontarget	4	975692	s	0	18.0	n/a	n/a	5
977.842	0.0	nontarget	4	977842	v	0	26.0	n/a	n/a	5
980.275	0.0	target	5	980275	n	1	43.0	1	0.444844	5
980.592	0.5	BAD keypress	1	980592	n/a	n/a	n/a	n/a	n/a	n/a
980.842	0.0	keypress	3	980842	n/a	n/a	n/a	n/a	n/a	n/a
981.942	26.081999999999997	BAD_break	2	981942	n/a	n/a	n/a	n/a	n/a	n/a
1008.524	0.0	nontarget	4	1008524	i	0	26.0	n/a	n/a	6
1011.041	0.0	nontarget	4	1011041	ö	0	48.0	n/a	n/a	6
1013.541	0.0	nontarget	4	1013541	y	0	47.0	n/a	n/a	6
1015.89	0.0	nontarget	4	1015890	u	0	38.0	n/a	n/a	6
1018.407	0.0	nontarget	4	1018407	c	0	48.0	n/a	n/a	6
1020.74	0.0	nontarget	4	1020740	l	0	37.0	n/a	n/a	6
1023.257	0.0	nontarget	4	1023257	ü	0	48.0	n/a	n/a	6
1025.807	0.0	nontarget	4	1025807	p	0	50.0	n/a	n/a	6
1027.973	0.0	nontarget	4	1027973	m	0	27.0	n/a	n/a	6
1030.04	0.0	target	5	1030040	x	1	21.0	1	0.4849067	6
1030.423	0.5	BAD keypress	1	1030423	n/a	n/a	n/a	n/a	n/a	n/a
1030.673	0.0	keypress	3	1030673	n/a	n/a	n/a	n/a	n/a	n/a
1032.34	0.0	nontarget	4	1032340	x	0	41.0	n/a	n/a	6
1034.44	0.0	nontarget	4	1034440	n	0	23.0	n/a	n/a	6
1036.523	0.0	target	5	1036523	y	1	22.0	0	n/a	6
1039.506	0.0	nontarget	4	1039506	o	0	45.0	n/a	n/a	6
1041.656	0.0	nontarget	4	1041656	j	0	26.0	n/a	n/a	6
1043.856	0.0	nontarget	4	1043856	m	0	29.0	n/a	n/a	6
1045.922	0.0	nontarget	4	1045922	g	0	21.0	n/a	n/a	6
1047.906	0.0	nontarget	4	1047906	s	0	16.0	n/a	n/a	6
1050.006	0.0	nontarget	4	1050006	x	0	23.0	n/a	n/a	6
1052.189	0.0	nontarget	4	1052189	e	0	28.0	n/a	n/a	6
1054.372	0.0	nontarget	4	1054372	i	0	28.0	n/a	n/a	6
1056.472	0.0	nontarget	4	1056472	m	0	23.0	n/a	n/a	6
1058.605	0.0	nontarget	4	1058605	ü	0	25.0	n/a	n/a	6
1060.805	0.0	nontarget	4	1060805	ß	0	29.0	n/a	n/a	6
1063.272	0.0	target	5	1063272	e	1	45.0	1	0.4027437	6
1063.555	0.5	BAD keypress	1	1063555	n/a	n/a	n/a	n/a	n/a	n/a
1063.805	0.0	keypress	3	1063805	n/a	n/a	n/a	n/a	n/a	n/a
1065.555	0.0	nontarget	4	1065555	h	0	46.0	n/a	n/a	6
1067.505	0.0	target	5	1067505	s	1	14.0	1	0.4572985	6
1067.872	0.5	BAD keypress	1	1067872	n/a	n/a	n/a	n/a	n/a	n/a
1068.122	0.0	keypress	3	1068122	n/a	n/a	n/a	n/a	n/a	n/a
1069.921	0.0	nontarget	4	1069921	e	0	49.0	n/a	n/a	6
1072.255	0.0	nontarget	4	1072255	l	0	37.0	n/a	n/a	6
1074.571	0.0	nontarget	4	1074571	o	0	36.0	n/a	n/a	6
1076.854	0.0	nontarget	4	1076854	y	0	34.0	n/a	n/a	6
1078.888	0.0	nontarget	4	1078888	z	0	19.0	n/a	n/a	6
1080.838	0.0	target	5	1080838	v	1	14.0	1	0.4996874	6
1081.188	0.5	BAD keypress	1	1081188	n/a	n/a	n/a	n/a	n/a	n/a
1081.438	0.0	keypress	3	1081438	n/a	n/a	n/a	n/a	n/a	n/a
1083.221	0.0	nontarget	4	1083221	u	0	48.0	n/a	n/a	6
1085.637	0.0	target	5	1085637	ü	1	42.0	1	0.4035895	6
1085.888	0.5	BAD keypress	1	1085888	n/a	n/a	n/a	n/a	n/a	n/a
1086.138	0.0	keypress	3	1086138	n/a	n/a	n/a	n/a	n/a	n/a
1087.737	0.0	nontarget	4	1087737	ä	0	37.0	n/a	n/a	6
1089.904	0.0	nontarget	4	1089904	j	0	27.0	n/a	n/a	6
1092.037	0.0	nontarget	4	1092037	l	0	25.0	n/a	n/a	6
1094.287	0.0	target	5	1094287	k	1	32.0	1	0.5373167	6
1094.654	0.5	BAD keypress	1	1094654	n/a	n/a	n/a	n/a	n/a	n/a
1094.904	0.0	keypress	3	1094904	n/a	n/a	n/a	n/a	n/a	n/a
1096.42	0.0	nontarget	4	1096420	v	0	32.0	n/a	n/a	6
1098.454	0.0	nontarget	4	1098454	d	0	19.0	n/a	n/a	6
1100.603	0.0	nontarget	4	1100603	ö	0	26.0	n/a	n/a	6
1103.12	0.0	nontarget	4	1103120	c	0	48.0	n/a	n/a	6
1105.203	0.0	target	5	1105203	f	1	22.0	1	0.5164323	6
1105.553	0.5	BAD keypress	1	1105553	n/a	n/a	n/a	n/a	n/a	n/a
1105.803	0.0	keypress	3	1105803	n/a	n/a	n/a	n/a	n/a	n/a
1107.553	0.0	nontarget	4	1107553	m	0	46.0	n/a	n/a	6
1109.57	0.0	nontarget	4	1109570	ü	0	18.0	n/a	n/a	6
1111.97	0.0	nontarget	4	1111970	ö	0	41.0	n/a	n/a	6
1114.203	0.0	nontarget	4	1114203	a	0	31.0	n/a	n/a	6
1116.169	0.0	nontarget	4	1116169	p	0	15.0	n/a	n/a	6
1118.253	0.0	nontarget	4	1118253	ß	0	22.0	n/a	n/a	6
1120.286	0.0	nontarget	4	1120286	u	0	19.0	n/a	n/a	6
1122.486	0.0	target	5	1122486	g	1	29.0	1	0.5446373	6
1122.886	0.5	BAD keypress	1	1122886	n/a	n/a	n/a	n/a	n/a	n/a
1123.136	0.0	keypress	3	1123136	n/a	n/a	n/a	n/a	n/a	n/a
1124.469	0.0	nontarget	4	1124469	r	0	21.0	n/a	n/a	6
1126.836	0.0	nontarget	4	1126836	c	0	39.0	n/a	n/a	6
1129.236	0.0	nontarget	4	1129236	q	0	41.0	n/a	n/a	6
1131.602	0.0	nontarget	4	1131602	z	0	39.0	n/a	n/a	6
1133.569	0.0	nontarget	4	1133569	ä	0	15.0	n/a	n/a	6
1136.069	0.0	target	5	1136069	h	1	47.0	0	n/a	6
1138.785	0.0	nontarget	4	1138785	n	0	29.0	n/a	n/a	6
1141.035	0.0	nontarget	4	1141035	c	0	32.0	n/a	n/a	6
1143.502	0.0	nontarget	4	1143502	t	0	45.0	n/a	n/a	6
1145.685	0.0	nontarget	4	1145685	e	0	28.0	n/a	n/a	6
1147.751	0.0	nontarget	4	1147751	w	0	21.0	n/a	n/a	6
1150.201	0.0	nontarget	4	1150201	g	0	44.0	n/a	n/a	6
1152.651	0.0	nontarget	4	1152651	y	0	44.0	n/a	n/a	6
1155.018	0.0	target	5	1155018	u	1	39.0	1	0.4905687	6
1155.385	0.5	BAD keypress	1	1155385	n/a	n/a	n/a	n/a	n/a	n/a
1155.635	0.0	keypress	3	1155635	n/a	n/a	n/a	n/a	n/a	n/a
1156.735	25.715000000000146	BAD_break	2	1156735	n/a	n/a	n/a	n/a	n/a	n/a
1182.95	0.0	nontarget	4	1182950	i	0	31.0	n/a	n/a	7
1184.916	0.0	nontarget	4	1184916	k	0	15.0	n/a	n/a	7
1187.2	0.0	nontarget	4	1187200	b	0	34.0	n/a	n/a	7
1189.366	0.0	nontarget	4	1189366	z	0	27.0	n/a	n/a	7
1191.5	0.0	nontarget	4	1191500	v	0	25.0	n/a	n/a	7
1193.783	0.0	nontarget	4	1193783	l	0	34.0	n/a	n/a	7
1196.266	0.0	nontarget	4	1196266	g	0	46.0	n/a	n/a	7
1198.683	0.0	nontarget	4	1198683	d	0	42.0	n/a	n/a	7
1200.682	0.0	nontarget	4	1200682	ü	0	17.0	n/a	n/a	7
1203.132	0.0	nontarget	4	1203132	v	0	44.0	n/a	n/a	7
1205.299	0.0	target	5	1205299	m	1	27.0	1	0.4779549	7
1205.649	0.5	BAD keypress	1	1205649	n/a	n/a	n/a	n/a	n/a	n/a
1205.899	0.0	keypress	3	1205899	n/a	n/a	n/a	n/a	n/a	n/a
1207.482	0.0	nontarget	4	1207482	l	0	36.0	n/a	n/a	7
1209.532	0.0	nontarget	4	1209532	o	0	20.0	n/a	n/a	7
1211.915	0.0	nontarget	4	1211915	e	0	40.0	n/a	n/a	7
1214.465	0.0	target	5	1214465	w	1	50.0	1	0.4310341	7
1214.732	0.5	BAD keypress	1	1214732	n/a	n/a	n/a	n/a	n/a	n/a
1214.982	0.0	keypress	3	1214982	n/a	n/a	n/a	n/a	n/a	n/a
1216.298	0.0	target	5	1216298	k	1	20.0	1	0.4535428	7
1216.582	0.5	BAD keypress	1	1216582	n/a	n/a	n/a	n/a	n/a	n/a
1216.832	0.0	keypress	3	1216832	n/a	n/a	n/a	n/a	n/a	n/a
1218.348	0.0	nontarget	4	1218348	x	0	32.0	n/a	n/a	7
1220.382	0.0	target	5	1220382	ä	1	19.0	1	0.418244	7
1220.632	0.5	BAD keypress	1	1220632	n/a	n/a	n/a	n/a	n/a	n/a
1220.882	0.0	keypress	3	1220882	n/a	n/a	n/a	n/a	n/a	n/a
1222.565	0.0	nontarget	4	1222565	k	0	42.0	n/a	n/a	7
1225.065	0.0	target	5	1225065	j	1	47.0	1	0.470791	7
1225.381	0.5	BAD keypress	1	1225381	n/a	n/a	n/a	n/a	n/a	n/a
1225.631	0.0	keypress	3	1225631	n/a	n/a	n/a	n/a	n/a	n/a
1226.848	0.0	nontarget	4	1226848	z	0	14.0	n/a	n/a	7
1229.365	0.0	nontarget	4	1229365	w	0	48.0	n/a	n/a	7
1231.748	0.0	nontarget	4	1231748	r	0	40.0	n/a	n/a	7
1233.931	0.0	nontarget	4	1233931	l	0	28.0	n/a	n/a	7
1236.198	0.0	target	5	1236198	o	1	33.0	1	0.4570892	7
1236.498	0.5	BAD keypress	1	1236498	n/a	n/a	n/a	n/a	n/a	n/a
1236.748	0.0	keypress	3	1236748	n/a	n/a	n/a	n/a	n/a	n/a
1238.014	0.0	target	5	1238014	m	1	17.0	1	0.5285266	7
1238.364	0.5	BAD keypress	1	1238364	n/a	n/a	n/a	n/a	n/a	n/a
1238.614	0.0	keypress	3	1238614	n/a	n/a	n/a	n/a	n/a	n/a
1240.247	0.0	nontarget	4	1240247	a	0	39.0	n/a	n/a	7
1242.664	0.0	nontarget	4	1242664	k	0	42.0	n/a	n/a	7
1244.631	0.0	nontarget	4	1244631	o	0	15.0	n/a	n/a	7
1247.147	0.0	nontarget	4	1247147	e	0	48.0	n/a	n/a	7
1249.28	0.0	target	5	1249280	a	1	25.0	0	n/a	7
1251.747	0.0	nontarget	4	1251747	q	0	14.0	n/a	n/a	7
1253.83	0.0	nontarget	4	1253830	x	0	22.0	n/a	n/a	7
1256.063	0.0	nontarget	4	1256063	g	0	31.0	n/a	n/a	7
1258.613	0.0	nontarget	4	1258613	k	0	50.0	n/a	n/a	7
1261.097	0.0	nontarget	4	1261097	z	0	46.0	n/a	n/a	7
1263.18	0.0	target	5	1263180	n	1	22.0	1	0.4332312	7
1263.463	0.5	BAD keypress	1	1263463	n/a	n/a	n/a	n/a	n/a	n/a
1263.713	0.0	keypress	3	1263713	n/a	n/a	n/a	n/a	n/a	n/a
1265.046	0.0	target	5	1265046	f	1	20.0	1	0.4544722	7
1265.346	0.5	BAD keypress	1	1265346	n/a	n/a	n/a	n/a	n/a	n/a
1265.596	0.0	keypress	3	1265596	n/a	n/a	n/a	n/a	n/a	n/a
1267.013	0.0	nontarget	4	1267013	u	0	25.0	n/a	n/a	7
1269.496	0.0	nontarget	4	1269496	p	0	46.0	n/a	n/a	7
1271.646	0.0	nontarget	4	1271646	f	0	26.0	n/a	n/a	7
1273.846	0.0	target	5	1273846	t	1	29.0	1	0.4702839	7
1274.163	0.5	BAD keypress	1	1274163	n/a	n/a	n/a	n/a	n/a	n/a
1274.413	0.0	keypress	3	1274413	n/a	n/a	n/a	n/a	n/a	n/a
1275.979	0.0	nontarget	4	1275979	j	0	35.0	n/a	n/a	7
1277.929	0.0	nontarget	4	1277929	r	0	14.0	n/a	n/a	7
1279.912	0.0	nontarget	4	1279912	f	0	16.0	n/a	n/a	7
1282.179	0.0	target	5	1282179	ä	1	33.0	1	0.4407402	7
1282.462	0.5	BAD keypress	1	1282462	n/a	n/a	n/a	n/a	n/a	n/a
1282.712	0.0	keypress	3	1282712	n/a	n/a	n/a	n/a	n/a	n/a
1284.146	0.0	nontarget	4	1284146	y	0	26.0	n/a	n/a	7
1286.495	0.0	target	5	1286495	c	1	38.0	1	0.5399576	7
1286.896	0.5	BAD keypress	1	1286896	n/a	n/a	n/a	n/a	n/a	n/a
1287.146	0.0	keypress	3	1287146	n/a	n/a	n/a	n/a	n/a	n/a
1288.962	0.0	nontarget	4	1288962	e	0	50.0	n/a	n/a	7
1291.312	0.0	nontarget	4	1291312	q	0	38.0	n/a	n/a	7
1293.478	0.0	nontarget	4	1293478	g	0	27.0	n/a	n/a	7
1295.695	0.0	nontarget	4	1295695	ä	0	30.0	n/a	n/a	7
1297.928	0.0	nontarget	4	1297928	v	0	31.0	n/a	n/a	7
1299.978	0.0	nontarget	4	1299978	a	0	20.0	n/a	n/a	7
1302.511	0.0	nontarget	4	1302511	ö	0	49.0	n/a	n/a	7
1304.995	0.0	target	5	1304995	d	1	46.0	1	0.5034542	7
1305.378	0.5	BAD keypress	1	1305378	n/a	n/a	n/a	n/a	n/a	n/a
1305.628	0.0	keypress	3	1305628	n/a	n/a	n/a	n/a	n/a	n/a
1306.995	0.0	nontarget	4	1306995	r	0	23.0	n/a	n/a	7
1309.228	0.0	nontarget	4	1309228	s	0	31.0	n/a	n/a	7
1311.444	0.0	nontarget	4	1311444	l	0	30.0	n/a	n/a	7
1313.944	0.0	nontarget	4	1313944	ä	0	47.0	n/a	n/a	7
1316.461	0.0	nontarget	4	1316461	k	0	48.0	n/a	n/a	7
1318.711	0.0	nontarget	4	1318711	z	0	32.0	n/a	n/a	7
1320.827	0.0	nontarget	4	1320827	ü	0	24.0	n/a	n/a	7
1323.261	0.0	nontarget	4	1323261	b	0	43.0	n/a	n/a	7
1325.727	0.0	nontarget	4	1325727	v	0	45.0	n/a	n/a	7
1327.927	0.0	nontarget	4	1327927	j	0	29.0	n/a	n/a	7
1329.027	96.92900000000007	BAD_break	2	1329027	n/a	n/a	n/a	n/a	n/a	n/a
1426.456	0.0	nontarget	4	1426456	g	0	47.0	n/a	n/a	8
1428.656	0.0	nontarget	4	1428656	a	0	29.0	n/a	n/a	8
1430.639	0.0	nontarget	4	1430639	x	0	16.0	n/a	n/a	8
1433.172	0.0	nontarget	4	1433172	k	0	49.0	n/a	n/a	8
1435.656	0.0	nontarget	4	1435656	w	0	46.0	n/a	n/a	8
1437.839	0.0	nontarget	4	1437839	h	0	28.0	n/a	n/a	8
1440.039	0.0	nontarget	4	1440039	ö	0	29.0	n/a	n/a	8
1442.555	0.0	target	5	1442555	z	1	48.0	1	0.4534781	8
1442.872	0.5	BAD keypress	1	1442872	n/a	n/a	n/a	n/a	n/a	n/a
1443.122	0.0	keypress	3	1443122	n/a	n/a	n/a	n/a	n/a	n/a
1444.622	0.0	nontarget	4	1444622	f	0	31.0	n/a	n/a	8
1446.705	0.0	nontarget	4	1446705	b	0	22.0	n/a	n/a	8
1448.822	0.0	nontarget	4	1448822	j	0	24.0	n/a	n/a	8
1451.305	0.0	nontarget	4	1451305	ü	0	46.0	n/a	n/a	8
1453.672	0.0	nontarget	4	1453672	q	0	39.0	n/a	n/a	8
1456.188	0.0	nontarget	4	1456188	p	0	48.0	n/a	n/a	8
1458.538	0.0	nontarget	4	1458538	f	0	38.0	n/a	n/a	8
1460.721	0.0	nontarget	4	1460721	a	0	28.0	n/a	n/a	8
1462.971	0.0	nontarget	4	1462971	x	0	32.0	n/a	n/a	8
1464.921	0.0	nontarget	4	1464921	t	0	14.0	n/a	n/a	8
1466.888	0.0	nontarget	4	1466888	w	0	15.0	n/a	n/a	8
1469.304	0.0	nontarget	4	1469304	z	0	42.0	n/a	n/a	8
1471.371	0.0	target	5	1471371	e	1	21.0	1	0.4520846	8
1471.671	0.5	BAD keypress	1	1471671	n/a	n/a	n/a	n/a	n/a	n/a
1471.921	0.0	keypress	3	1471921	n/a	n/a	n/a	n/a	n/a	n/a
1473.337	0.0	nontarget	4	1473337	ü	0	26.0	n/a	n/a	8
1475.654	0.0	nontarget	4	1475654	n	0	36.0	n/a	n/a	8
1477.954	0.0	target	5	1477954	x	1	35.0	1	0.4445656	8
1478.254	0.5	BAD keypress	1	1478254	n/a	n/a	n/a	n/a	n/a	n/a
1478.504	0.0	keypress	3	1478504	n/a	n/a	n/a	n/a	n/a	n/a
1480.22	0.0	nontarget	4	1480220	u	0	44.0	n/a	n/a	8
1482.32	0.0	nontarget	4	1482320	m	0	23.0	n/a	n/a	8
1484.537	0.0	nontarget	4	1484537	h	0	30.0	n/a	n/a	8
1486.52	0.0	nontarget	4	1486520	y	0	16.0	n/a	n/a	8
1488.97	0.0	nontarget	4	1488970	ö	0	44.0	n/a	n/a	8
1491.287	0.0	nontarget	4	1491287	d	0	36.0	n/a	n/a	8
1493.836	0.0	nontarget	4	1493836	q	0	50.0	n/a	n/a	8
1495.803	0.0	nontarget	4	1495803	t	0	15.0	n/a	n/a	8
1497.986	0.0	nontarget	4	1497986	n	0	28.0	n/a	n/a	8
1500.119	0.0	target	5	1500119	c	1	25.0	1	0.6133755	8
1500.503	0.5	BAD keypress	1	1500503	n/a	n/a	n/a	n/a	n/a	n/a
1500.753	0.0	keypress	3	1500753	n/a	n/a	n/a	n/a	n/a	n/a
1501.003	0.5	BAD keypress	1	1501003	n/a	n/a	n/a	n/a	n/a	n/a
1501.253	0.0	keypress	3	1501253	n/a	n/a	n/a	n/a	n/a	n/a
1502.086	0.0	nontarget	4	1502086	d	0	21.0	n/a	n/a	8
1504.503	0.0	target	5	1504503	j	1	42.0	1	0.4699334	8
1504.819	0.5	BAD keypress	1	1504819	n/a	n/a	n/a	n/a	n/a	n/a
1505.069	0.0	keypress	3	1505069	n/a	n/a	n/a	n/a	n/a	n/a
1506.586	0.0	target	5	1506586	ü	1	32.0	1	0.4025965	8
1506.886	0.5	BAD keypress	1	1506886	n/a	n/a	n/a	n/a	n/a	n/a
1507.136	0.0	keypress	3	1507136	n/a	n/a	n/a	n/a	n/a	n/a
1508.686	0.0	nontarget	4	1508686	r	0	34.0	n/a	n/a	8
1511.052	0.0	nontarget	4	1511052	i	0	39.0	n/a	n/a	8
1513.302	0.0	nontarget	4	1513302	h	0	32.0	n/a	n/a	8
1515.636	0.0	nontarget	4	1515636	p	0	37.0	n/a	n/a	8
1517.635	0.0	target	5	1517635	l	1	17.0	1	0.4722603	8
1517.985	0.5	BAD keypress	1	1517985	n/a	n/a	n/a	n/a	n/a	n/a
1518.235	0.0	keypress	3	1518235	n/a	n/a	n/a	n/a	n/a	n/a
1519.919	0.0	nontarget	4	1519919	m	0	42.0	n/a	n/a	8
1521.869	0.0	nontarget	4	1521869	d	0	14.0	n/a	n/a	8
1523.968	0.0	nontarget	4	1523968	y	0	23.0	n/a	n/a	8
1526.018	0.0	target	5	1526018	t	1	20.0	0	n/a	8
1528.535	0.0	nontarget	4	1528535	p	0	17.0	n/a	n/a	8
1530.901	0.0	nontarget	4	1530901	ß	0	39.0	n/a	n/a	8
1533.185	0.0	nontarget	4	1533185	s	0	34.0	n/a	n/a	8
1535.185	0.0	nontarget	4	1535185	ö	0	17.0	n/a	n/a	8
1537.218	0.0	target	5	1537218	u	1	19.0	1	0.4884799	8
1537.568	0.5	BAD keypress	1	1537568	n/a	n/a	n/a	n/a	n/a	n/a
1537.818	0.0	keypress	3	1537818	n/a	n/a	n/a	n/a	n/a	n/a
1539.451	0.0	nontarget	4	1539451	x	0	39.0	n/a	n/a	8
1541.518	0.0	nontarget	4	1541518	ü	0	21.0	n/a	n/a	8
1543.684	0.0	nontarget	4	1543684	d	0	27.0	n/a	n/a	8
1546.234	0.0	nontarget	4	1546234	w	0	50.0	n/a	n/a	8
1548.634	0.0	nontarget	4	1548634	q	0	41.0	n/a	n/a	8
1550.867	0.0	nontarget	4	1550867	j	0	31.0	n/a	n/a	8
1553.067	0.0	nontarget	4	1553067	a	0	29.0	n/a	n/a	8
1555.084	0.0	nontarget	4	1555084	r	0	18.0	n/a	n/a	8
1557.117	0.0	target	5	1557117	a	1	19.0	1	0.5560011	8
1557.567	0.5	BAD keypress	1	1557567	n/a	n/a	n/a	n/a	n/a	n/a
1557.817	0.0	keypress	3	1557817	n/a	n/a	n/a	n/a	n/a	n/a
1559.3	0.0	nontarget	4	1559300	y	0	30.0	n/a	n/a	8
1561.417	0.0	nontarget	4	1561417	m	0	24.0	n/a	n/a	8
1563.6	0.0	nontarget	4	1563600	n	0	28.0	n/a	n/a	8
1565.567	0.0	nontarget	4	1565567	x	0	15.0	n/a	n/a	8
1567.683	0.0	nontarget	4	1567683	i	0	24.0	n/a	n/a	8
1570.216	0.0	nontarget	4	1570216	r	0	49.0	n/a	n/a	8
1571.316	6.26700000000028	BAD_break	2	1571316	n/a	n/a	n/a	n/a	n/a	n/a
1578.083	0.0	nontarget	4	1578083	y	0	19.0	n/a	n/a	9
1580.566	0.0	nontarget	4	1580566	d	0	46.0	n/a	n/a	9
1582.749	0.0	nontarget	4	1582749	ä	0	28.0	n/a	n/a	9
1584.782	0.0	nontarget	4	1584782	b	0	19.0	n/a	n/a	9
1586.816	0.0	nontarget	4	1586816	a	0	19.0	n/a	n/a	9
1588.866	0.0	target	5	1588866	c	1	20.0	1	0.5812391	9
1589.316	0.5	BAD keypress	1	1589316	n/a	n/a	n/a	n/a	n/a	n/a
1589.566	0.0	keypress	3	1589566	n/a	n/a	n/a	n/a	n/a	n/a
1591.166	0.0	nontarget	4	1591166	j	0	37.0	n/a	n/a	9
1593.282	0.0	nontarget	4	1593282	ö	0	24.0	n/a	n/a	9
1595.365	0.0	nontarget	4	1595365	g	0	22.0	n/a	n/a	9
1597.899	0.0	nontarget	4	1597899	k	0	49.0	n/a	n/a	9
1600.332	0.0	nontarget	4	1600332	w	0	43.0	n/a	n/a	9
1602.665	0.0	nontarget	4	1602665	t	0	37.0	n/a	n/a	9
1604.848	0.0	target	5	1604848	n	1	28.0	1	0.5015136	9
1605.198	0.5	BAD keypress	1	1605198	n/a	n/a	n/a	n/a	n/a	n/a
1605.448	0.0	keypress	3	1605448	n/a	n/a	n/a	n/a	n/a	n/a
1606.832	0.0	nontarget	4	1606832	m	0	24.0	n/a	n/a	9
1609.048	0.0	nontarget	4	1609048	e	0	30.0	n/a	n/a	9
1611.231	0.0	nontarget	4	1611231	l	0	28.0	n/a	n/a	9
1613.398	0.0	target	5	1613398	r	1	27.0	1	0.4952468	9
1613.748	0.5	BAD keypress	1	1613748	n/a	n/a	n/a	n/a	n/a	n/a
1613.998	0.0	keypress	3	1613998	n/a	n/a	n/a	n/a	n/a	n/a
1615.548	0.0	nontarget	4	1615548	s	0	34.0	n/a	n/a	9
1617.681	0.0	target	5	1617681	v	1	25.0	1	0.4197917	9
1617.964	0.5	BAD keypress	1	1617964	n/a	n/a	n/a	n/a	n/a	n/a
1618.214	0.0	keypress	3	1618214	n/a	n/a	n/a	n/a	n/a	n/a
1619.581	0.0	target	5	1619581	y	1	23.0	1	0.3918146	9
1619.881	0.5	BAD keypress	1	1619881	n/a	n/a	n/a	n/a	n/a	n/a
1620.131	0.0	keypress	3	1620131	n/a	n/a	n/a	n/a	n/a	n/a
1621.848	0.0	nontarget	4	1621848	b	0	44.0	n/a	n/a	9
1624.297	0.0	nontarget	4	1624297	g	0	44.0	n/a	n/a	9
1626.714	0.0	target	5	1626714	p	1	42.0	1	0.426279	9
1627.031	0.5	BAD keypress	1	1627031	n/a	n/a	n/a	n/a	n/a	n/a
1627.281	0.0	keypress	3	1627281	n/a	n/a	n/a	n/a	n/a	n/a
1628.664	0.0	nontarget	4	1628664	r	0	24.0	n/a	n/a	9
1630.797	0.0	nontarget	4	1630797	v	0	25.0	n/a	n/a	9
1633.147	0.0	nontarget	4	1633147	ß	0	38.0	n/a	n/a	9
1635.197	0.0	nontarget	4	1635197	q	0	20.0	n/a	n/a	9
1637.364	0.0	nontarget	4	1637364	t	0	27.0	n/a	n/a	9
1639.513	0.0	nontarget	4	1639513	d	0	26.0	n/a	n/a	9
1641.58	0.0	nontarget	4	1641580	l	0	21.0	n/a	n/a	9
1644.097	0.0	nontarget	4	1644097	g	0	48.0	n/a	n/a	9
1646.28	0.0	nontarget	4	1646280	ö	0	28.0	n/a	n/a	9
1648.813	0.0	nontarget	4	1648813	x	0	49.0	n/a	n/a	9
1650.763	0.0	nontarget	4	1650763	j	0	14.0	n/a	n/a	9
1653.263	0.0	nontarget	4	1653263	l	0	47.0	n/a	n/a	9
1655.313	0.0	nontarget	4	1655313	p	0	20.0	n/a	n/a	9
1657.629	0.0	nontarget	4	1657629	b	0	36.0	n/a	n/a	9
1659.696	0.0	target	5	1659696	s	1	21.0	1	0.4661411	9
1660.046	0.5	BAD keypress	1	1660046	n/a	n/a	n/a	n/a	n/a	n/a
1660.296	0.0	keypress	3	1660296	n/a	n/a	n/a	n/a	n/a	n/a
1661.529	0.0	nontarget	4	1661529	ö	0	15.0	n/a	n/a	9
1663.812	0.0	target	5	1663812	z	1	34.0	1	0.5092233	9
1664.229	0.5	BAD keypress	1	1664229	n/a	n/a	n/a	n/a	n/a	n/a
1664.479	0.0	keypress	3	1664479	n/a	n/a	n/a	n/a	n/a	n/a
1665.779	0.0	nontarget	4	1665779	p	0	19.0	n/a	n/a	9
1667.896	0.0	target	5	1667896	v	1	24.0	1	0.5378179	9
1668.312	0.5	BAD keypress	1	1668312	n/a	n/a	n/a	n/a	n/a	n/a
1668.562	0.0	keypress	3	1668562	n/a	n/a	n/a	n/a	n/a	n/a
1670.095	0.0	nontarget	4	1670095	f	0	32.0	n/a	n/a	9
1672.129	0.0	nontarget	4	1672129	m	0	19.0	n/a	n/a	9
1674.679	0.0	nontarget	4	1674679	t	0	50.0	n/a	n/a	9
1677.145	0.0	nontarget	4	1677145	ä	0	45.0	n/a	n/a	9
1679.345	0.0	nontarget	4	1679345	w	0	29.0	n/a	n/a	9
1681.578	0.0	target	5	1681578	e	1	31.0	1	0.502232	9
1681.978	0.5	BAD keypress	1	1681978	n/a	n/a	n/a	n/a	n/a	n/a
1682.228	0.0	keypress	3	1682228	n/a	n/a	n/a	n/a	n/a	n/a
1683.662	0.0	nontarget	4	1683662	q	0	27.0	n/a	n/a	9
1686.078	0.0	nontarget	4	1686078	p	0	42.0	n/a	n/a	9
1688.361	0.0	nontarget	4	1688361	o	0	34.0	n/a	n/a	9
1690.545	0.0	nontarget	4	1690545	l	0	28.0	n/a	n/a	9
1692.928	0.0	nontarget	4	1692928	ö	0	40.0	n/a	n/a	9
1695.461	0.0	nontarget	4	1695461	d	0	49.0	n/a	n/a	9
1697.994	0.0	nontarget	4	1697994	t	0	49.0	n/a	n/a	9
1700.094	0.0	target	5	1700094	f	1	23.0	1	0.4971932	9
1700.461	0.5	BAD keypress	1	1700461	n/a	n/a	n/a	n/a	n/a	n/a
1700.711	0.0	keypress	3	1700711	n/a	n/a	n/a	n/a	n/a	n/a
1702.327	0.0	nontarget	4	1702327	i	0	38.0	n/a	n/a	9
1704.427	0.0	target	5	1704427	h	1	23.0	1	0.4356977	9
1704.761	0.5	BAD keypress	1	1704761	n/a	n/a	n/a	n/a	n/a	n/a
1705.011	0.0	keypress	3	1705011	n/a	n/a	n/a	n/a	n/a	n/a
1706.227	0.0	nontarget	4	1706227	s	0	14.0	n/a	n/a	9
1708.577	0.0	nontarget	4	1708577	w	0	38.0	n/a	n/a	9
1710.777	0.0	nontarget	4	1710777	o	0	29.0	n/a	n/a	9
1712.794	0.0	nontarget	4	1712794	z	0	18.0	n/a	n/a	9
1715.294	0.0	nontarget	4	1715294	s	0	47.0	n/a	n/a	9
1717.343	0.0	nontarget	4	1717343	k	0	20.0	n/a	n/a	9
1719.893	0.0	nontarget	4	1719893	f	0	50.0	n/a	n/a	9
1721.993	0.0	target	5	1721993	t	1	23.0	1	0.5325265	9
1722.377	0.5	BAD keypress	1	1722377	n/a	n/a	n/a	n/a	n/a	n/a
1722.627	0.0	keypress	3	1722627	n/a	n/a	n/a	n/a	n/a	n/a
1723.727	28.91500000000019	BAD_break	2	1723727	n/a	n/a	n/a	n/a	n/a	n/a
1753.142	0.0	nontarget	4	1753142	r	0	41.0	n/a	n/a	10
1755.375	0.0	nontarget	4	1755375	q	0	31.0	n/a	n/a	10
1757.925	0.0	nontarget	4	1757925	ä	0	50.0	n/a	n/a	10
1760.408	0.0	nontarget	4	1760408	u	0	46.0	n/a	n/a	10
1762.541	0.0	nontarget	4	1762541	i	0	25.0	n/a	n/a	10
1764.958	0.0	nontarget	4	1764958	x	0	42.0	n/a	n/a	10
1767.291	0.0	nontarget	4	1767291	j	0	37.0	n/a	n/a	10
1769.525	0.0	nontarget	4	1769525	m	0	31.0	n/a	n/a	10
1771.758	0.0	target	5	1771758	s	1	31.0	1	0.524659	10
1772.191	0.5	BAD keypress	1	1772191	n/a	n/a	n/a	n/a	n/a	n/a
1772.441	0.0	keypress	3	1772441	n/a	n/a	n/a	n/a	n/a	n/a
1774.124	0.0	nontarget	4	1774124	i	0	42.0	n/a	n/a	10
1776.358	0.0	nontarget	4	1776358	ö	0	31.0	n/a	n/a	10
1778.791	0.0	nontarget	4	1778791	n	0	43.0	n/a	n/a	10
1781.041	0.0	nontarget	4	1781041	z	0	32.0	n/a	n/a	10
1783.074	0.0	nontarget	4	1783074	a	0	19.0	n/a	n/a	10
1785.041	0.0	nontarget	4	1785041	l	0	15.0	n/a	n/a	10
1787.124	0.0	target	5	1787124	l	1	22.0	1	0.4216826	10
1787.424	0.5	BAD keypress	1	1787424	n/a	n/a	n/a	n/a	n/a	n/a
1787.674	0.0	keypress	3	1787674	n/a	n/a	n/a	n/a	n/a	n/a
1788.94	0.0	nontarget	4	1788940	j	0	17.0	n/a	n/a	10
1791.357	0.0	nontarget	4	1791357	t	0	42.0	n/a	n/a	10
1793.44	0.0	target	5	1793440	t	1	22.0	1	0.440809	10
1793.774	0.5	BAD keypress	1	1793774	n/a	n/a	n/a	n/a	n/a	n/a
1794.024	0.0	keypress	3	1794024	n/a	n/a	n/a	n/a	n/a	n/a
1795.757	0.0	nontarget	4	1795757	l	0	45.0	n/a	n/a	10
1797.973	0.0	nontarget	4	1797973	s	0	30.0	n/a	n/a	10
1800.173	0.0	nontarget	4	1800173	d	0	29.0	n/a	n/a	10
1802.706	0.0	nontarget	4	1802706	c	0	49.0	n/a	n/a	10
1804.806	0.0	nontarget	4	1804806	w	0	23.0	n/a	n/a	10
1807.173	0.0	nontarget	4	1807173	p	0	39.0	n/a	n/a	10
1809.706	0.0	nontarget	4	1809706	ü	0	49.0	n/a	n/a	10
1812.039	0.0	nontarget	4	1812039	i	0	37.0	n/a	n/a	10
1814.373	0.0	nontarget	4	1814373	f	0	37.0	n/a	n/a	10
1816.756	0.0	nontarget	4	1816756	u	0	40.0	n/a	n/a	10
1819.222	0.0	target	5	1819222	o	1	45.0	1	0.464906	10
1819.556	0.5	BAD keypress	1	1819556	n/a	n/a	n/a	n/a	n/a	n/a
1819.806	0.0	keypress	3	1819806	n/a	n/a	n/a	n/a	n/a	n/a
1821.172	0.0	nontarget	4	1821172	ü	0	23.0	n/a	n/a	10
1823.672	0.0	nontarget	4	1823672	x	0	47.0	n/a	n/a	10
1825.972	0.0	nontarget	4	1825972	n	0	35.0	n/a	n/a	10
1828.022	0.0	nontarget	4	1828022	d	0	20.0	n/a	n/a	10
1830.172	0.0	nontarget	4	1830172	u	0	26.0	n/a	n/a	10
1832.522	0.0	nontarget	4	1832522	z	0	38.0	n/a	n/a	10
1834.472	0.0	nontarget	4	1834472	ü	0	14.0	n/a	n/a	10
1836.672	0.0	target	5	1836672	a	1	29.0	1	0.5504398	10
1837.072	0.5	BAD keypress	1	1837072	n/a	n/a	n/a	n/a	n/a	n/a
1837.322	0.0	keypress	3	1837322	n/a	n/a	n/a	n/a	n/a	n/a
1838.888	0.0	nontarget	4	1838888	t	0	35.0	n/a	n/a	10
1841.138	0.0	target	5	1841138	g	1	32.0	1	0.4516567	10
1841.488	0.5	BAD keypress	1	1841488	n/a	n/a	n/a	n/a	n/a	n/a
1841.738	0.0	keypress	3	1841738	n/a	n/a	n/a	n/a	n/a	n/a
1842.988	0.0	target	5	1842988	j	1	16.0	1	0.6177375	10
1843.455	0.5	BAD keypress	1	1843455	n/a	n/a	n/a	n/a	n/a	n/a
1843.705	0.0	keypress	3	1843705	n/a	n/a	n/a	n/a	n/a	n/a
1845.205	0.0	nontarget	4	1845205	y	0	31.0	n/a	n/a	10
1847.504	0.0	nontarget	4	1847504	v	0	35.0	n/a	n/a	10
1849.921	0.0	nontarget	4	1849921	r	0	42.0	n/a	n/a	10
1851.954	0.0	nontarget	4	1851954	p	0	19.0	n/a	n/a	10
1854.487	0.0	nontarget	4	1854487	ü	0	49.0	n/a	n/a	10
1857.021	0.0	nontarget	4	1857021	k	0	49.0	n/a	n/a	10
1859.021	0.0	nontarget	4	1859021	ö	0	17.0	n/a	n/a	10
1861.387	0.0	nontarget	4	1861387	l	0	39.0	n/a	n/a	10
1863.37	0.0	nontarget	4	1863370	i	0	16.0	n/a	n/a	10
1865.32	0.0	nontarget	4	1865320	f	0	14.0	n/a	n/a	10
1867.637	0.0	nontarget	4	1867637	o	0	36.0	n/a	n/a	10
1870.02	0.0	nontarget	4	1870020	m	0	40.0	n/a	n/a	10
1871.97	0.0	nontarget	4	1871970	v	0	14.0	n/a	n/a	10
1874.003	0.0	nontarget	4	1874003	c	0	19.0	n/a	n/a	10
1876.353	0.0	nontarget	4	1876353	t	0	38.0	n/a	n/a	10
1878.453	0.0	target	5	1878453	o	1	23.0	1	0.5420642	10
1878.903	0.5	BAD keypress	1	1878903	n/a	n/a	n/a	n/a	n/a	n/a
1879.153	0.0	keypress	3	1879153	n/a	n/a	n/a	n/a	n/a	n/a
1880.586	0.0	target	5	1880586	w	1	27.0	1	0.456654	10
1880.92	0.5	BAD keypress	1	1880920	n/a	n/a	n/a	n/a	n/a	n/a
1881.17	0.0	keypress	3	1881170	n/a	n/a	n/a	n/a	n/a	n/a
1882.503	0.0	target	5	1882503	x	1	21.0	1	0.3959762	10
1882.77	0.5	BAD keypress	1	1882770	n/a	n/a	n/a	n/a	n/a	n/a
1883.02	0.0	keypress	3	1883020	n/a	n/a	n/a	n/a	n/a	n/a
1884.436	0.0	nontarget	4	1884436	d	0	26.0	n/a	n/a	10
1886.703	0.0	nontarget	4	1886703	o	0	33.0	n/a	n/a	10
1888.719	0.0	nontarget	4	1888719	l	0	18.0	n/a	n/a	10
1891.103	0.0	nontarget	4	1891103	q	0	40.0	n/a	n/a	10
1893.452	0.0	nontarget	4	1893452	x	0	38.0	n/a	n/a	10
1895.469	0.0	nontarget	4	1895469	s	0	18.0	n/a	n/a	10
1897.852	0.0	nontarget	4	1897852	n	0	40.0	n/a	n/a	10
1898.952	42.46499999999992	BAD_break	2	1898952	n/a	n/a	n/a	n/a	n/a	n/a
1941.917	0.0	nontarget	4	1941917	a	0	21.0	n/a	n/a	11
1944.234	0.0	target	5	1944234	l	1	36.0	1	0.5171264	11
1944.65	0.5	BAD keypress	1	1944650	n/a	n/a	n/a	n/a	n/a	n/a
1944.9	0.0	keypress	3	1944900	n/a	n/a	n/a	n/a	n/a	n/a
1946.484	0.0	target	5	1946484	c	1	36.0	1	0.4429766	11
1946.817	0.5	BAD keypress	1	1946817	n/a	n/a	n/a	n/a	n/a	n/a
1947.067	0.0	keypress	3	1947067	n/a	n/a	n/a	n/a	n/a	n/a
1948.683	0.0	nontarget	4	1948683	k	0	38.0	n/a	n/a	11
1951.117	0.0	nontarget	4	1951117	ä	0	43.0	n/a	n/a	11
1953.067	0.0	nontarget	4	1953067	l	0	14.0	n/a	n/a	11
1955.566	0.0	nontarget	4	1955566	p	0	47.0	n/a	n/a	11
1957.583	0.0	target	5	1957583	f	1	18.0	1	0.4468077	11
1957.916	0.5	BAD keypress	1	1957916	n/a	n/a	n/a	n/a	n/a	n/a
1958.166	0.0	keypress	3	1958166	n/a	n/a	n/a	n/a	n/a	n/a
1959.9	0.0	nontarget	4	1959900	g	0	45.0	n/a	n/a	11
1961.933	0.0	target	5	1961933	m	1	19.0	1	0.4486151	11
1962.25	0.5	BAD keypress	1	1962250	n/a	n/a	n/a	n/a	n/a	n/a
1962.5	0.0	keypress	3	1962500	n/a	n/a	n/a	n/a	n/a	n/a
1963.849	0.0	nontarget	4	1963849	n	0	22.0	n/a	n/a	11
1965.799	0.0	nontarget	4	1965799	y	0	14.0	n/a	n/a	11
1968.316	0.0	nontarget	4	1968316	o	0	48.0	n/a	n/a	11
1970.549	0.0	nontarget	4	1970549	e	0	31.0	n/a	n/a	11
1972.516	0.0	nontarget	4	1972516	t	0	15.0	n/a	n/a	11
1974.999	0.0	nontarget	4	1974999	p	0	46.0	n/a	n/a	11
1977.499	0.0	nontarget	4	1977499	k	0	47.0	n/a	n/a	11
1979.582	0.0	nontarget	4	1979582	w	0	22.0	n/a	n/a	11
1982.032	0.0	nontarget	4	1982032	d	0	44.0	n/a	n/a	11
1984.215	0.0	target	5	1984215	p	1	28.0	1	0.5008657	11
1984.649	0.5	BAD keypress	1	1984649	n/a	n/a	n/a	n/a	n/a	n/a
1984.899	0.0	keypress	3	1984899	n/a	n/a	n/a	n/a	n/a	n/a
1986.232	0.0	nontarget	4	1986232	y	0	21.0	n/a	n/a	11
1988.748	0.0	nontarget	4	1988748	u	0	48.0	n/a	n/a	11
1990.815	0.0	nontarget	4	1990815	s	0	21.0	n/a	n/a	11
1992.782	0.0	nontarget	4	1992782	d	0	15.0	n/a	n/a	11
1994.781	0.0	nontarget	4	1994781	v	0	17.0	n/a	n/a	11
1996.981	0.0	nontarget	4	1996981	n	0	29.0	n/a	n/a	11
1999.231	0.0	nontarget	4	1999231	u	0	32.0	n/a	n/a	11
2001.181	0.0	nontarget	4	2001181	ä	0	14.0	n/a	n/a	11
2003.214	0.0	nontarget	4	2003214	f	0	19.0	n/a	n/a	11
2005.748	0.0	nontarget	4	2005748	w	0	49.0	n/a	n/a	11
2007.864	0.0	nontarget	4	2007864	ß	0	24.0	n/a	n/a	11
2010.381	0.0	nontarget	4	2010381	x	0	48.0	n/a	n/a	11
2012.381	0.0	nontarget	4	2012381	q	0	17.0	n/a	n/a	11
2014.397	0.0	target	5	2014397	m	1	18.0	0	n/a	11
2017.38	0.0	nontarget	4	2017380	ö	0	45.0	n/a	n/a	11
2019.414	0.0	nontarget	4	2019414	x	0	19.0	n/a	n/a	11
2021.914	0.0	target	5	2021914	w	1	47.0	1	0.5118297	11
2022.264	0.5	BAD keypress	1	2022264	n/a	n/a	n/a	n/a	n/a	n/a
2022.514	0.0	keypress	3	2022514	n/a	n/a	n/a	n/a	n/a	n/a
2024.164	0.0	target	5	2024164	x	1	40.0	1	0.4697709	11
2024.447	0.5	BAD keypress	1	2024447	n/a	n/a	n/a	n/a	n/a	n/a
2024.697	0.0	keypress	3	2024697	n/a	n/a	n/a	n/a	n/a	n/a
2026.063	0.0	target	5	2026063	i	1	23.0	1	0.4578022	11
2026.38	0.5	BAD keypress	1	2026380	n/a	n/a	n/a	n/a	n/a	n/a
2026.63	0.0	keypress	3	2026630	n/a	n/a	n/a	n/a	n/a	n/a
2028.297	0.0	nontarget	4	2028297	g	0	41.0	n/a	n/a	11
2030.53	0.0	nontarget	4	2030530	y	0	31.0	n/a	n/a	11
2032.713	0.0	nontarget	4	2032713	x	0	28.0	n/a	n/a	11
2035.23	0.0	nontarget	4	2035230	k	0	48.0	n/a	n/a	11
2037.38	0.0	nontarget	4	2037380	ü	0	26.0	n/a	n/a	11
2039.746	0.0	nontarget	4	2039746	ö	0	39.0	n/a	n/a	11
2042.063	0.0	nontarget	4	2042063	v	0	36.0	n/a	n/a	11
2044.446	0.0	nontarget	4	2044446	p	0	40.0	n/a	n/a	11
2046.896	0.0	nontarget	4	2046896	r	0	44.0	n/a	n/a	11
2049.279	0.0	nontarget	4	2049279	w	0	40.0	n/a	n/a	11
2051.229	0.0	target	5	2051229	q	1	14.0	1	0.6024442	11
2051.696	0.5	BAD keypress	1	2051696	n/a	n/a	n/a	n/a	n/a	n/a
2051.946	0.0	keypress	3	2051946	n/a	n/a	n/a	n/a	n/a	n/a
2053.362	0.0	target	5	2053362	k	1	26.0	1	0.4690378	11
2053.679	0.5	BAD keypress	1	2053679	n/a	n/a	n/a	n/a	n/a	n/a
2053.929	0.0	keypress	3	2053929	n/a	n/a	n/a	n/a	n/a	n/a
2055.679	0.0	nontarget	4	2055679	ä	0	46.0	n/a	n/a	11
2058.145	0.0	nontarget	4	2058145	q	0	45.0	n/a	n/a	11
2060.679	0.0	nontarget	4	2060679	c	0	49.0	n/a	n/a	11
2062.778	0.0	nontarget	4	2062778	v	0	23.0	n/a	n/a	11
2064.895	0.0	nontarget	4	2064895	n	0	24.0	n/a	n/a	11
2066.995	0.0	nontarget	4	2066995	g	0	23.0	n/a	n/a	11
2069.478	0.0	nontarget	4	2069478	h	0	46.0	n/a	n/a	11
2071.778	0.0	nontarget	4	2071778	k	0	35.0	n/a	n/a	11
2074.078	0.0	nontarget	4	2074078	l	0	35.0	n/a	n/a	11
2076.595	0.0	nontarget	4	2076595	m	0	48.0	n/a	n/a	11
2078.844	0.0	nontarget	4	2078844	s	0	32.0	n/a	n/a	11
2081.244	0.0	nontarget	4	2081244	ö	0	41.0	n/a	n/a	11
2083.528	0.0	nontarget	4	2083528	l	0	34.0	n/a	n/a	11
2085.728	0.0	nontarget	4	2085728	o	0	29.0	n/a	n/a	11
2088.127	0.0	nontarget	4	2088127	t	0	41.0	n/a	n/a	11
2089.227	43.66499999999997	BAD_break	2	2089227	n/a	n/a	n/a	n/a	n/a	n/a
2133.392	0.0	nontarget	4	2133392	ä	0	26.0	n/a	n/a	12
2135.442	0.0	nontarget	4	2135442	g	0	20.0	n/a	n/a	12
2137.442	0.0	nontarget	4	2137442	s	0	17.0	n/a	n/a	12
2139.525	0.0	target	5	2139525	i	1	22.0	1	0.4602322	12
2139.875	0.5	BAD keypress	1	2139875	n/a	n/a	n/a	n/a	n/a	n/a
2140.125	0.0	keypress	3	2140125	n/a	n/a	n/a	n/a	n/a	n/a
2141.842	0.0	nontarget	4	2141842	u	0	44.0	n/a	n/a	12
2144.075	0.0	nontarget	4	2144075	v	0	31.0	n/a	n/a	12
2146.442	0.0	nontarget	4	2146442	b	0	39.0	n/a	n/a	12
2148.525	0.0	nontarget	4	2148525	j	0	22.0	n/a	n/a	12
2150.758	0.0	nontarget	4	2150758	ä	0	31.0	n/a	n/a	12
2153.091	0.0	target	5	2153091	q	1	37.0	1	0.4933302	12
2153.491	0.5	BAD keypress	1	2153491	n/a	n/a	n/a	n/a	n/a	n/a
2153.741	0.0	keypress	3	2153741	n/a	n/a	n/a	n/a	n/a	n/a
2154.958	0.0	nontarget	4	2154958	s	0	14.0	n/a	n/a	12
2157.308	0.0	nontarget	4	2157308	h	0	38.0	n/a	n/a	12
2159.524	0.0	nontarget	4	2159524	w	0	30.0	n/a	n/a	12
2161.541	0.0	target	5	2161541	j	1	18.0	1	0.5551033	12
2161.941	0.5	BAD keypress	1	2161941	n/a	n/a	n/a	n/a	n/a	n/a
2162.191	0.0	keypress	3	2162191	n/a	n/a	n/a	n/a	n/a	n/a
2163.474	0.0	target	5	2163474	v	1	18.0	1	0.4297331	12
2163.724	0.5	BAD keypress	1	2163724	n/a	n/a	n/a	n/a	n/a	n/a
2163.974	0.0	keypress	3	2163974	n/a	n/a	n/a	n/a	n/a	n/a
2165.674	0.0	nontarget	4	2165674	l	0	43.0	n/a	n/a	12
2168.124	0.0	nontarget	4	2168124	z	0	44.0	n/a	n/a	12
2170.207	0.0	nontarget	4	2170207	q	0	22.0	n/a	n/a	12
2172.474	0.0	nontarget	4	2172474	s	0	33.0	n/a	n/a	12
2175.007	0.0	nontarget	4	2175007	y	0	49.0	n/a	n/a	12
2177.524	0.0	nontarget	4	2177524	k	0	48.0	n/a	n/a	12
2179.923	0.0	nontarget	4	2179923	f	0	41.0	n/a	n/a	12
2182.107	0.0	nontarget	4	2182107	n	0	28.0	n/a	n/a	12
2184.657	0.0	nontarget	4	2184657	c	0	50.0	n/a	n/a	12
2186.84	0.0	nontarget	4	2186840	d	0	28.0	n/a	n/a	12
2189.023	0.0	nontarget	4	2189023	ß	0	28.0	n/a	n/a	12
2191.04	0.0	nontarget	4	2191040	t	0	18.0	n/a	n/a	12
2193.29	0.0	nontarget	4	2193290	f	0	32.0	n/a	n/a	12
2195.656	0.0	nontarget	4	2195656	z	0	39.0	n/a	n/a	12
2197.739	0.0	nontarget	4	2197739	v	0	22.0	n/a	n/a	12
2200.273	0.0	target	5	2200273	i	1	49.0	1	0.5408267	12
2200.689	0.5	BAD keypress	1	2200689	n/a	n/a	n/a	n/a	n/a	n/a
2200.939	0.0	keypress	3	2200939	n/a	n/a	n/a	n/a	n/a	n/a
2202.572	0.0	nontarget	4	2202572	y	0	39.0	n/a	n/a	12
2204.772	0.0	nontarget	4	2204772	ä	0	29.0	n/a	n/a	12
2206.756	0.0	nontarget	4	2206756	e	0	16.0	n/a	n/a	12
2208.839	0.0	target	5	2208839	h	1	22.0	1	0.5179531	12
2209.222	0.5	BAD keypress	1	2209222	n/a	n/a	n/a	n/a	n/a	n/a
2209.472	0.0	keypress	3	2209472	n/a	n/a	n/a	n/a	n/a	n/a
2210.755	0.0	nontarget	4	2210755	x	0	18.0	n/a	n/a	12
2213.072	0.0	target	5	2213072	q	1	36.0	1	0.5563804	12
2213.489	0.5	BAD keypress	1	2213489	n/a	n/a	n/a	n/a	n/a	n/a
2213.739	0.0	keypress	3	2213739	n/a	n/a	n/a	n/a	n/a	n/a
2215.489	0.0	target	5	2215489	b	1	46.0	1	0.42775	12
2215.789	0.5	BAD keypress	1	2215789	n/a	n/a	n/a	n/a	n/a	n/a
2216.039	0.0	keypress	3	2216039	n/a	n/a	n/a	n/a	n/a	n/a
2217.755	0.0	nontarget	4	2217755	w	0	44.0	n/a	n/a	12
2220.122	0.0	target	5	2220122	n	1	39.0	1	0.4503179	12
2220.438	0.5	BAD keypress	1	2220438	n/a	n/a	n/a	n/a	n/a	n/a
2220.688	0.0	keypress	3	2220688	n/a	n/a	n/a	n/a	n/a	n/a
2222.188	0.0	nontarget	4	2222188	a	0	31.0	n/a	n/a	12
2224.305	0.0	nontarget	4	2224305	f	0	24.0	n/a	n/a	12
2226.355	0.0	nontarget	4	2226355	o	0	20.0	n/a	n/a	12
2228.405	0.0	nontarget	4	2228405	d	0	20.0	n/a	n/a	12
2230.905	0.0	nontarget	4	2230905	ß	0	47.0	n/a	n/a	12
2233.038	0.0	nontarget	4	2233038	e	0	25.0	n/a	n/a	12
2235.421	0.0	nontarget	4	2235421	a	0	40.0	n/a	n/a	12
2237.588	0.0	nontarget	4	2237588	i	0	27.0	n/a	n/a	12
2239.954	0.0	nontarget	4	2239954	b	0	39.0	n/a	n/a	12
2242.187	0.0	target	5	2242187	b	1	31.0	1	0.559041	12
2242.637	0.5	BAD keypress	1	2242637	n/a	n/a	n/a	n/a	n/a	n/a
2242.887	0.0	keypress	3	2242887	n/a	n/a	n/a	n/a	n/a	n/a
2244.621	0.0	nontarget	4	2244621	c	0	45.0	n/a	n/a	12
2247.171	0.0	nontarget	4	2247171	g	0	50.0	n/a	n/a	12
2249.504	0.0	nontarget	4	2249504	r	0	37.0	n/a	n/a	12
2251.787	0.0	target	5	2251787	b	1	34.0	1	0.5108215	12
2252.137	0.5	BAD keypress	1	2252137	n/a	n/a	n/a	n/a	n/a	n/a
2252.387	0.0	keypress	3	2252387	n/a	n/a	n/a	n/a	n/a	n/a
2254.12	0.0	nontarget	4	2254120	e	0	45.0	n/a	n/a	12
2256.553	0.0	nontarget	4	2256553	t	0	43.0	n/a	n/a	12
2258.637	0.0	nontarget	4	2258637	f	0	22.0	n/a	n/a	12
2261.153	0.0	target	5	2261153	u	1	48.0	1	0.4239784	12
2261.487	0.5	BAD keypress	1	2261487	n/a	n/a	n/a	n/a	n/a	n/a
2261.737	0.0	keypress	3	2261737	n/a	n/a	n/a	n/a	n/a	n/a
2263.52	0.0	nontarget	4	2263520	b	0	48.0	n/a	n/a	12
2265.786	0.0	nontarget	4	2265786	y	0	33.0	n/a	n/a	12
2267.986	0.0	nontarget	4	2267986	g	0	29.0	n/a	n/a	12
2270.103	0.0	nontarget	4	2270103	v	0	24.0	n/a	n/a	12
2272.536	0.0	nontarget	4	2272536	x	0	43.0	n/a	n/a	12
2274.636	0.0	nontarget	4	2274636	f	0	23.0	n/a	n/a	12
2276.619	0.0	nontarget	4	2276619	h	0	16.0	n/a	n/a	12
2279.019	0.0	nontarget	4	2279019	u	0	41.0	n/a	n/a	12
2280.119	27.26600000000053	BAD_break	2	2280119	n/a	n/a	n/a	n/a	n/a	n/a
2307.885	0.0	nontarget	4	2307885	z	0	50.0	n/a	n/a	13
2310.351	0.0	nontarget	4	2310351	b	0	45.0	n/a	n/a	13
2312.418	0.0	nontarget	4	2312418	r	0	21.0	n/a	n/a	13
2314.718	0.0	nontarget	4	2314718	ß	0	35.0	n/a	n/a	13
2316.934	0.0	nontarget	4	2316934	l	0	30.0	n/a	n/a	13
2319.217	0.0	nontarget	4	2319217	i	0	34.0	n/a	n/a	13
2321.701	0.0	nontarget	4	2321701	j	0	46.0	n/a	n/a	13
2323.667	0.0	nontarget	4	2323667	b	0	15.0	n/a	n/a	13
2325.984	0.0	nontarget	4	2325984	m	0	36.0	n/a	n/a	13
2328.0	0.0	nontarget	4	2328000	x	0	18.0	n/a	n/a	13
2330.05	0.0	nontarget	4	2330050	i	0	20.0	n/a	n/a	13
2332.184	0.0	nontarget	4	2332184	z	0	25.0	n/a	n/a	13
2334.533	0.0	nontarget	4	2334533	b	0	38.0	n/a	n/a	13
2336.817	0.0	target	5	2336817	y	1	34.0	1	0.4353524	13
2337.067	0.5	BAD keypress	1	2337067	n/a	n/a	n/a	n/a	n/a	n/a
2337.317	0.0	keypress	3	2337317	n/a	n/a	n/a	n/a	n/a	n/a
2339.033	0.0	nontarget	4	2339033	u	0	44.0	n/a	n/a	13
2341.516	0.0	nontarget	4	2341516	t	0	46.0	n/a	n/a	13
2344.0	0.0	target	5	2344000	l	1	46.0	1	0.4358931	13
2344.266	0.5	BAD keypress	1	2344266	n/a	n/a	n/a	n/a	n/a	n/a
2344.516	0.0	keypress	3	2344516	n/a	n/a	n/a	n/a	n/a	n/a
2346.183	0.0	nontarget	4	2346183	a	0	41.0	n/a	n/a	13
2348.683	0.0	nontarget	4	2348683	h	0	47.0	n/a	n/a	13
2351.016	0.0	nontarget	4	2351016	m	0	37.0	n/a	n/a	13
2353.233	0.0	target	5	2353233	s	1	30.0	1	0.402219	13
2353.449	0.5	BAD keypress	1	2353449	n/a	n/a	n/a	n/a	n/a	n/a
2353.699	0.0	keypress	3	2353699	n/a	n/a	n/a	n/a	n/a	n/a
2355.233	0.0	nontarget	4	2355233	ä	0	33.0	n/a	n/a	13
2357.682	0.0	nontarget	4	2357682	g	0	44.0	n/a	n/a	13
2360.032	0.0	target	5	2360032	f	1	38.0	1	0.4181799	13
2360.299	0.5	BAD keypress	1	2360299	n/a	n/a	n/a	n/a	n/a	n/a
2360.549	0.0	keypress	3	2360549	n/a	n/a	n/a	n/a	n/a	n/a
2361.899	0.0	nontarget	4	2361899	h	0	22.0	n/a	n/a	13
2364.449	0.0	nontarget	4	2364449	r	0	50.0	n/a	n/a	13
2366.632	0.0	nontarget	4	2366632	t	0	28.0	n/a	n/a	13
2368.949	0.0	target	5	2368949	p	1	36.0	1	0.4292897	13
2369.182	0.5	BAD keypress	1	2369182	n/a	n/a	n/a	n/a	n/a	n/a
2369.432	0.0	keypress	3	2369432	n/a	n/a	n/a	n/a	n/a	n/a
2370.949	0.0	nontarget	4	2370949	i	0	32.0	n/a	n/a	13
2373.082	0.0	nontarget	4	2373082	y	0	25.0	n/a	n/a	13
2375.448	0.0	target	5	2375448	g	1	39.0	1	0.3931654	13
2375.665	0.5	BAD keypress	1	2375665	n/a	n/a	n/a	n/a	n/a	n/a
2375.915	0.0	keypress	3	2375915	n/a	n/a	n/a	n/a	n/a	n/a
2377.432	0.0	nontarget	4	2377432	z	0	32.0	n/a	n/a	13
2379.398	0.0	target	5	2379398	x	1	15.0	1	0.411038	13
2379.632	0.5	BAD keypress	1	2379632	n/a	n/a	n/a	n/a	n/a	n/a
2379.882	0.0	keypress	3	2379882	n/a	n/a	n/a	n/a	n/a	n/a
2381.365	0.0	target	5	2381365	c	1	30.0	1	0.4282417	13
2381.615	0.5	BAD keypress	1	2381615	n/a	n/a	n/a	n/a	n/a	n/a
2381.865	0.0	keypress	3	2381865	n/a	n/a	n/a	n/a	n/a	n/a
2383.365	0.0	target	5	2383365	t	1	31.0	1	0.4282332	13
2383.648	0.5	BAD keypress	1	2383648	n/a	n/a	n/a	n/a	n/a	n/a
2383.898	0.0	keypress	3	2383898	n/a	n/a	n/a	n/a	n/a	n/a
2385.631	0.0	nontarget	4	2385631	h	0	45.0	n/a	n/a	13
2387.698	0.0	nontarget	4	2387698	c	0	21.0	n/a	n/a	13
2389.898	0.0	nontarget	4	2389898	w	0	29.0	n/a	n/a	13
2391.864	0.0	nontarget	4	2391864	t	0	15.0	n/a	n/a	13
2394.248	0.0	nontarget	4	2394248	ü	0	40.0	n/a	n/a	13
2396.231	0.0	nontarget	4	2396231	h	0	16.0	n/a	n/a	13
2398.397	0.0	nontarget	4	2398397	c	0	27.0	n/a	n/a	13
2400.864	0.0	nontarget	4	2400864	e	0	45.0	n/a	n/a	13
2403.214	0.0	nontarget	4	2403214	d	0	38.0	n/a	n/a	13
2405.714	0.0	nontarget	4	2405714	u	0	47.0	n/a	n/a	13
2408.13	0.0	nontarget	4	2408130	r	0	42.0	n/a	n/a	13
2410.197	0.0	nontarget	4	2410197	ä	0	21.0	n/a	n/a	13
2412.73	0.0	nontarget	4	2412730	ö	0	49.0	n/a	n/a	13
2415.163	0.0	nontarget	4	2415163	m	0	43.0	n/a	n/a	13
2417.263	0.0	nontarget	4	2417263	a	0	23.0	n/a	n/a	13
2419.813	0.0	target	5	2419813	y	1	50.0	1	0.4093299	13
2420.063	0.5	BAD keypress	1	2420063	n/a	n/a	n/a	n/a	n/a	n/a
2420.313	0.0	keypress	3	2420313	n/a	n/a	n/a	n/a	n/a	n/a
2422.13	0.0	nontarget	4	2422130	ß	0	50.0	n/a	n/a	13
2424.48	0.0	nontarget	4	2424480	j	0	38.0	n/a	n/a	13
2426.813	0.0	nontarget	4	2426813	p	0	37.0	n/a	n/a	13
2429.246	0.0	target	5	2429246	k	1	43.0	1	0.4316854	13
2429.496	0.5	BAD keypress	1	2429496	n/a	n/a	n/a	n/a	n/a	n/a
2429.746	0.0	keypress	3	2429746	n/a	n/a	n/a	n/a	n/a	n/a
2431.146	0.0	nontarget	4	2431146	q	0	25.0	n/a	n/a	13
2433.612	0.0	target	5	2433612	z	1	45.0	1	0.4170906	13
2433.846	0.5	BAD keypress	1	2433846	n/a	n/a	n/a	n/a	n/a	n/a
2434.096	0.0	keypress	3	2434096	n/a	n/a	n/a	n/a	n/a	n/a
2435.646	0.0	nontarget	4	2435646	s	0	34.0	n/a	n/a	13
2438.029	0.0	nontarget	4	2438029	j	0	40.0	n/a	n/a	13
2440.029	0.0	target	5	2440029	ä	1	17.0	1	0.4801827	13
2440.346	0.5	BAD keypress	1	2440346	n/a	n/a	n/a	n/a	n/a	n/a
2440.596	0.0	keypress	3	2440596	n/a	n/a	n/a	n/a	n/a	n/a
2442.179	0.0	nontarget	4	2442179	ü	0	36.0	n/a	n/a	13
2444.479	0.0	nontarget	4	2444479	d	0	35.0	n/a	n/a	13
2446.729	0.0	nontarget	4	2446729	r	0	32.0	n/a	n/a	13
2449.145	0.0	nontarget	4	2449145	m	0	42.0	n/a	n/a	13
2451.678	0.0	nontarget	4	2451678	h	0	49.0	n/a	n/a	13
2453.678	0.0	nontarget	4	2453678	z	0	17.0	n/a	n/a	13
2454.778	24.94900000000007	BAD_break	2	2454778	n/a	n/a	n/a	n/a	n/a	n/a
2480.227	0.0	nontarget	4	2480227	s	0	24.0	n/a	n/a	14
2482.21	0.0	nontarget	4	2482210	i	0	16.0	n/a	n/a	14
2484.227	0.0	target	5	2484227	ü	1	18.0	1	0.375113	14
2484.444	0.5	BAD keypress	1	2484444	n/a	n/a	n/a	n/a	n/a	n/a
2484.694	0.0	keypress	3	2484694	n/a	n/a	n/a	n/a	n/a	n/a
2486.444	0.0	nontarget	4	2486444	h	0	46.0	n/a	n/a	14
2488.46	0.0	nontarget	4	2488460	p	0	18.0	n/a	n/a	14
2490.41	0.0	nontarget	4	2490410	c	0	14.0	n/a	n/a	14
2492.743	0.0	nontarget	4	2492743	b	0	37.0	n/a	n/a	14
2494.893	0.0	nontarget	4	2494893	t	0	26.0	n/a	n/a	14
2497.076	0.0	nontarget	4	2497076	w	0	28.0	n/a	n/a	14
2499.293	0.0	nontarget	4	2499293	h	0	30.0	n/a	n/a	14
2501.576	0.0	nontarget	4	2501576	k	0	34.0	n/a	n/a	14
2503.809	0.0	nontarget	4	2503809	ü	0	31.0	n/a	n/a	14
2506.209	0.0	nontarget	4	2506209	ö	0	41.0	n/a	n/a	14
2508.426	0.0	nontarget	4	2508426	a	0	30.0	n/a	n/a	14
2510.776	0.0	nontarget	4	2510776	f	0	38.0	n/a	n/a	14
2512.892	0.0	nontarget	4	2512892	p	0	24.0	n/a	n/a	14
2515.142	0.0	nontarget	4	2515142	ß	0	32.0	n/a	n/a	14
2517.342	0.0	nontarget	4	2517342	z	0	29.0	n/a	n/a	14
2519.759	0.0	target	5	2519759	w	1	42.0	1	0.4089742	14
2520.009	0.5	BAD keypress	1	2520009	n/a	n/a	n/a	n/a	n/a	n/a
2520.259	0.0	keypress	3	2520259	n/a	n/a	n/a	n/a	n/a	n/a
2521.659	0.0	target	5	2521659	q	1	25.0	1	0.3808294	14
2521.875	0.5	BAD keypress	1	2521875	n/a	n/a	n/a	n/a	n/a	n/a
2522.125	0.0	keypress	3	2522125	n/a	n/a	n/a	n/a	n/a	n/a
2523.775	0.0	nontarget	4	2523775	ä	0	40.0	n/a	n/a	14
2526.142	0.0	nontarget	4	2526142	c	0	39.0	n/a	n/a	14
2528.408	0.0	nontarget	4	2528408	y	0	33.0	n/a	n/a	14
2530.825	0.0	target	5	2530825	s	1	42.0	1	0.4299865	14
2531.075	0.5	BAD keypress	1	2531075	n/a	n/a	n/a	n/a	n/a	n/a
2531.325	0.0	keypress	3	2531325	n/a	n/a	n/a	n/a	n/a	n/a
2533.025	0.0	nontarget	4	2533025	o	0	43.0	n/a	n/a	14
2535.508	0.0	nontarget	4	2535508	a	0	46.0	n/a	n/a	14
2537.591	0.0	nontarget	4	2537591	ä	0	22.0	n/a	n/a	14
2540.025	0.0	nontarget	4	2540025	i	0	43.0	n/a	n/a	14
2541.974	0.0	nontarget	4	2541974	r	0	14.0	n/a	n/a	14
2544.258	0.0	nontarget	4	2544258	b	0	34.0	n/a	n/a	14
2546.624	0.0	nontarget	4	2546624	a	0	39.0	n/a	n/a	14
2548.641	0.0	nontarget	4	2548641	d	0	18.0	n/a	n/a	14
2550.957	0.0	nontarget	4	2550957	g	0	36.0	n/a	n/a	14
2553.257	0.0	target	5	2553257	b	1	35.0	1	0.4119779	14
2553.491	0.5	BAD keypress	1	2553491	n/a	n/a	n/a	n/a	n/a	n/a
2553.741	0.0	keypress	3	2553741	n/a	n/a	n/a	n/a	n/a	n/a
2555.291	0.0	nontarget	4	2555291	q	0	34.0	n/a	n/a	14
2557.324	0.0	target	5	2557324	k	1	19.0	1	0.45725	14
2557.574	0.5	BAD keypress	1	2557574	n/a	n/a	n/a	n/a	n/a	n/a
2557.824	0.0	keypress	3	2557824	n/a	n/a	n/a	n/a	n/a	n/a
2559.124	0.0	nontarget	4	2559124	m	0	19.0	n/a	n/a	14
2561.224	0.0	nontarget	4	2561224	p	0	23.0	n/a	n/a	14
2563.557	0.0	nontarget	4	2563557	u	0	37.0	n/a	n/a	14
2566.04	0.0	target	5	2566040	s	1	46.0	1	0.41245	14
2566.324	0.5	BAD keypress	1	2566324	n/a	n/a	n/a	n/a	n/a	n/a
2566.574	0.0	keypress	3	2566574	n/a	n/a	n/a	n/a	n/a	n/a
2567.79	0.0	nontarget	4	2567790	e	0	14.0	n/a	n/a	14
2569.873	0.0	nontarget	4	2569873	v	0	22.0	n/a	n/a	14
2572.39	0.0	nontarget	4	2572390	o	0	48.0	n/a	n/a	14
2574.44	0.0	nontarget	4	2574440	u	0	20.0	n/a	n/a	14
2576.39	0.0	nontarget	4	2576390	q	0	14.0	n/a	n/a	14
2578.59	0.0	nontarget	4	2578590	b	0	29.0	n/a	n/a	14
2580.989	0.0	nontarget	4	2580989	a	0	41.0	n/a	n/a	14
2583.073	0.0	nontarget	4	2583073	e	0	22.0	n/a	n/a	14
2585.156	0.0	nontarget	4	2585156	n	0	22.0	n/a	n/a	14
2587.539	0.0	nontarget	4	2587539	ö	0	40.0	n/a	n/a	14
2589.856	0.0	nontarget	4	2589856	k	0	36.0	n/a	n/a	14
2592.006	0.0	target	5	2592006	z	1	26.0	1	0.5251193	14
2592.389	0.5	BAD keypress	1	2592389	n/a	n/a	n/a	n/a	n/a	n/a
2592.639	0.0	keypress	3	2592639	n/a	n/a	n/a	n/a	n/a	n/a
2593.872	0.0	nontarget	4	2593872	q	0	15.0	n/a	n/a	14
2596.372	0.0	nontarget	4	2596372	t	0	47.0	n/a	n/a	14
2598.739	0.0	nontarget	4	2598739	v	0	39.0	n/a	n/a	14
2601.105	0.0	nontarget	4	2601105	ö	0	39.0	n/a	n/a	14
2603.605	0.0	nontarget	4	2603605	n	0	47.0	n/a	n/a	14
2605.938	0.0	target	5	2605938	z	1	37.0	1	0.4154458	14
2606.172	0.5	BAD keypress	1	2606172	n/a	n/a	n/a	n/a	n/a	n/a
2606.422	0.0	keypress	3	2606422	n/a	n/a	n/a	n/a	n/a	n/a
2607.888	0.0	nontarget	4	2607888	f	0	29.0	n/a	n/a	14
2610.372	0.0	target	5	2610372	a	1	46.0	1	0.3979791	14
2610.638	0.5	BAD keypress	1	2610638	n/a	n/a	n/a	n/a	n/a	n/a
2610.888	0.0	keypress	3	2610888	n/a	n/a	n/a	n/a	n/a	n/a
2611.988	6.611000000000331	BAD_break	2	2611988	n/a	n/a	n/a	n/a	n/a	n/a
