onset	duration	trial_type	value	sample	stimulus	target	blank_jitter_frames	accuracy	response_time	block
0.0	568.662	BAD_break	2	0	n/a	n/a	n/a	n/a	n/a	n/a
569.162	0.0	target	5	569162	e	1	33.0	1	0.4060324	1
569.412	0.5	BAD keypress	1	569412	n/a	n/a	n/a	n/a	n/a	n/a
569.662	0.0	keypress	3	569662	n/a	n/a	n/a	n/a	n/a	n/a
571.295	0.0	nontarget	4	571295	t	0	38.0	n/a	n/a	1
573.462	0.0	nontarget	4	573462	i	0	27.0	n/a	n/a	1
575.895	0.0	target	5	575895	z	1	43.0	1	0.3926855	1
576.145	0.5	BAD keypress	1	576145	n/a	n/a	n/a	n/a	n/a	n/a
576.395	0.0	keypress	3	576395	n/a	n/a	n/a	n/a	n/a	n/a
578.195	0.0	nontarget	4	578195	r	0	48.0	n/a	n/a	1
580.445	0.0	nontarget	4	580445	z	0	32.0	n/a	n/a	1
582.545	0.0	nontarget	4	582545	t	0	23.0	n/a	n/a	1
584.495	0.0	target	5	584495	t	1	14.0	1	0.4484711	1
584.795	0.5	BAD keypress	1	584795	n/a	n/a	n/a	n/a	n/a	n/a
585.045	0.0	keypress	3	585045	n/a	n/a	n/a	n/a	n/a	n/a
586.378	0.0	nontarget	4	586378	w	0	20.0	n/a	n/a	1
588.845	0.0	nontarget	4	588845	m	0	45.0	n/a	n/a	1
591.378	0.0	nontarget	4	591378	ü	0	49.0	n/a	n/a	1
593.428	0.0	nontarget	4	593428	t	0	20.0	n/a	n/a	1
595.678	0.0	nontarget	4	595678	p	0	32.0	n/a	n/a	1
598.061	0.0	nontarget	4	598061	y	0	40.0	n/a	n/a	1
600.211	0.0	nontarget	4	600211	k	0	26.0	n/a	n/a	1
602.494	0.0	nontarget	4	602494	ü	0	34.0	n/a	n/a	1
604.511	0.0	target	5	604511	n	1	18.0	1	0.5752601	1
604.927	0.5	BAD keypress	1	604927	n/a	n/a	n/a	n/a	n/a	n/a
605.177	0.0	keypress	3	605177	n/a	n/a	n/a	n/a	n/a	n/a
606.961	0.0	target	5	606961	y	1	47.0	1	0.5252805	1
607.361	0.5	BAD keypress	1	607361	n/a	n/a	n/a	n/a	n/a	n/a
607.611	0.0	keypress	3	607611	n/a	n/a	n/a	n/a	n/a	n/a
609.277	0.0	target	5	609277	g	1	41.0	1	0.4006722	1
609.544	0.5	BAD keypress	1	609544	n/a	n/a	n/a	n/a	n/a	n/a
609.794	0.0	keypress	3	609794	n/a	n/a	n/a	n/a	n/a	n/a
611.227	0.0	nontarget	4	611227	k	0	27.0	n/a	n/a	1
613.177	0.0	nontarget	4	613177	f	0	14.0	n/a	n/a	1
615.727	0.0	target	5	615727	x	1	50.0	1	0.4944221	1
616.11	0.5	BAD keypress	1	616110	n/a	n/a	n/a	n/a	n/a	n/a
616.36	0.0	keypress	3	616360	n/a	n/a	n/a	n/a	n/a	n/a
617.96	0.0	nontarget	4	617960	b	0	36.0	n/a	n/a	1
620.06	0.0	nontarget	4	620060	n	0	23.0	n/a	n/a	1
622.243	0.0	nontarget	4	622243	y	0	28.0	n/a	n/a	1
624.326	0.0	nontarget	4	624326	a	0	22.0	n/a	n/a	1
626.31	0.0	nontarget	4	626310	ö	0	16.0	n/a	n/a	1
628.36	0.0	nontarget	4	628360	ü	0	20.0	n/a	n/a	1
630.826	0.0	nontarget	4	630826	n	0	45.0	n/a	n/a	1
633.193	0.0	nontarget	4	633193	p	0	39.0	n/a	n/a	1
635.176	0.0	nontarget	4	635176	t	0	16.0	n/a	n/a	1
637.293	0.0	nontarget	4	637293	y	0	24.0	n/a	n/a	1
639.542	0.0	nontarget	4	639542	b	0	32.0	n/a	n/a	1
641.676	0.0	nontarget	4	641676	c	0	25.0	n/a	n/a	1
643.759	0.0	nontarget	4	643759	ö	0	22.0	n/a	n/a	1
645.792	0.0	nontarget	4	645792	g	0	19.0	n/a	n/a	1
647.825	0.0	nontarget	4	647825	m	0	19.0	n/a	n/a	1
650.359	0.0	target	5	650359	v	1	49.0	1	0.5163635	1
650.725	0.5	BAD keypress	1	650725	n/a	n/a	n/a	n/a	n/a	n/a
650.975	0.0	keypress	3	650975	n/a	n/a	n/a	n/a	n/a	n/a
652.342	0.0	nontarget	4	652342	d	0	22.0	n/a	n/a	1
654.342	0.0	nontarget	4	654342	b	0	17.0	n/a	n/a	1
656.808	0.0	nontarget	4	656808	o	0	45.0	n/a	n/a	1
658.775	0.0	nontarget	4	658775	a	0	15.0	n/a	n/a	1
661.058	0.0	nontarget	4	661058	k	0	34.0	n/a	n/a	1
663.358	0.0	nontarget	4	663358	ö	0	35.0	n/a	n/a	1
665.341	0.0	nontarget	4	665341	u	0	16.0	n/a	n/a	1
667.341	0.0	nontarget	4	667341	z	0	17.0	n/a	n/a	1
669.824	0.0	nontarget	4	669824	q	0	46.0	n/a	n/a	1
672.258	0.0	nontarget	4	672258	n	0	43.0	n/a	n/a	1
674.224	0.0	nontarget	4	674224	t	0	15.0	n/a	n/a	1
676.224	0.0	nontarget	4	676224	s	0	17.0	n/a	n/a	1
678.357	0.0	nontarget	4	678357	ü	0	25.0	n/a	n/a	1
680.857	0.0	target	5	680857	k	1	47.0	1	0.4477059	1
681.157	0.5	BAD keypress	1	681157	n/a	n/a	n/a	n/a	n/a	n/a
681.407	0.0	keypress	3	681407	n/a	n/a	n/a	n/a	n/a	n/a
682.807	0.0	nontarget	4	682807	k	0	25.0	n/a	n/a	1
685.124	0.0	nontarget	4	685124	g	0	36.0	n/a	n/a	1
687.157	0.0	nontarget	4	687157	p	0	19.0	n/a	n/a	1
689.624	0.0	nontarget	4	689624	s	0	45.0	n/a	n/a	1
692.073	0.0	nontarget	4	692073	r	0	44.0	n/a	n/a	1
694.39	0.0	nontarget	4	694390	d	0	36.0	n/a	n/a	1
696.94	0.0	nontarget	4	696940	i	0	50.0	n/a	n/a	1
699.023	0.0	target	5	699023	t	1	22.0	1	0.4885019	1
699.373	0.5	BAD keypress	1	699373	n/a	n/a	n/a	n/a	n/a	n/a
699.623	0.0	keypress	3	699623	n/a	n/a	n/a	n/a	n/a	n/a
701.156	0.0	nontarget	4	701156	t	0	33.0	n/a	n/a	1
703.373	0.0	nontarget	4	703373	z	0	30.0	n/a	n/a	1
705.839	0.0	nontarget	4	705839	p	0	45.0	n/a	n/a	1
708.206	0.0	nontarget	4	708206	q	0	39.0	n/a	n/a	1
710.639	0.0	target	5	710639	x	1	43.0	1	0.5036585	1
711.006	0.5	BAD keypress	1	711006	n/a	n/a	n/a	n/a	n/a	n/a
711.256	0.0	keypress	3	711256	n/a	n/a	n/a	n/a	n/a	n/a
712.889	0.0	nontarget	4	712889	d	0	39.0	n/a	n/a	1
713.989	17.632999999999925	BAD_break	2	713989	n/a	n/a	n/a	n/a	n/a	n/a
732.122	0.0	nontarget	4	732122	z	0	40.0	n/a	n/a	2
734.605	0.0	target	5	734605	l	1	46.0	1	0.4244786	2
734.922	0.5	BAD keypress	1	734922	n/a	n/a	n/a	n/a	n/a	n/a
735.172	0.0	keypress	3	735172	n/a	n/a	n/a	n/a	n/a	n/a
736.888	0.0	nontarget	4	736888	w	0	43.0	n/a	n/a	2
738.955	0.0	nontarget	4	738955	v	0	21.0	n/a	n/a	2
741.055	0.0	nontarget	4	741055	c	0	23.0	n/a	n/a	2
743.238	0.0	nontarget	4	743238	o	0	28.0	n/a	n/a	2
745.571	0.0	target	5	745571	k	1	37.0	1	0.49759609	2
745.938	0.5	BAD keypress	1	745938	n/a	n/a	n/a	n/a	n/a	n/a
746.188	0.0	keypress	3	746188	n/a	n/a	n/a	n/a	n/a	n/a
747.504	0.0	nontarget	4	747504	x	0	19.0	n/a	n/a	2
749.471	0.0	target	5	749471	q	1	15.0	1	0.4694095	2
749.804	0.5	BAD keypress	1	749804	n/a	n/a	n/a	n/a	n/a	n/a
750.054	0.0	keypress	3	750054	n/a	n/a	n/a	n/a	n/a	n/a
751.721	0.0	nontarget	4	751721	ö	0	40.0	n/a	n/a	2
753.821	0.0	nontarget	4	753821	j	0	23.0	n/a	n/a	2
756.071	0.0	nontarget	4	756071	x	0	32.0	n/a	n/a	2
758.57	0.0	nontarget	4	758570	c	0	47.0	n/a	n/a	2
761.02	0.0	nontarget	4	761020	t	0	44.0	n/a	n/a	2
763.42	0.0	nontarget	4	763420	p	0	41.0	n/a	n/a	2
765.453	0.0	target	5	765453	y	1	19.0	1	0.4697979	2
765.82	0.5	BAD keypress	1	765820	n/a	n/a	n/a	n/a	n/a	n/a
766.07	0.0	keypress	3	766070	n/a	n/a	n/a	n/a	n/a	n/a
767.737	0.0	nontarget	4	767737	n	0	41.0	n/a	n/a	2
770.153	0.0	nontarget	4	770153	ö	0	42.0	n/a	n/a	2
772.503	0.0	nontarget	4	772503	y	0	38.0	n/a	n/a	2
774.953	0.0	nontarget	4	774953	z	0	44.0	n/a	n/a	2
777.153	0.0	nontarget	4	777153	x	0	29.0	n/a	n/a	2
779.12	0.0	nontarget	4	779120	d	0	15.0	n/a	n/a	2
781.086	0.0	target	5	781086	i	1	15.0	1	0.5158818	2
781.453	0.5	BAD keypress	1	781453	n/a	n/a	n/a	n/a	n/a	n/a
781.703	0.0	keypress	3	781703	n/a	n/a	n/a	n/a	n/a	n/a
783.053	0.0	nontarget	4	783053	e	0	18.0	n/a	n/a	2
785.069	0.0	target	5	785069	p	1	18.0	1	0.4686768	2
785.419	0.5	BAD keypress	1	785419	n/a	n/a	n/a	n/a	n/a	n/a
785.669	0.0	keypress	3	785669	n/a	n/a	n/a	n/a	n/a	n/a
786.886	0.0	nontarget	4	786886	n	0	14.0	n/a	n/a	2
789.169	0.0	nontarget	4	789169	ü	0	34.0	n/a	n/a	2
791.236	0.0	nontarget	4	791236	o	0	21.0	n/a	n/a	2
793.502	0.0	nontarget	4	793502	a	0	33.0	n/a	n/a	2
795.785	0.0	nontarget	4	795785	g	0	34.0	n/a	n/a	2
797.869	0.0	target	5	797869	l	1	22.0	1	0.5484013	2
798.285	0.5	BAD keypress	1	798285	n/a	n/a	n/a	n/a	n/a	n/a
798.535	0.0	keypress	3	798535	n/a	n/a	n/a	n/a	n/a	n/a
799.885	0.0	nontarget	4	799885	z	0	22.0	n/a	n/a	2
802.152	0.0	nontarget	4	802152	c	0	33.0	n/a	n/a	2
804.185	0.0	nontarget	4	804185	ö	0	19.0	n/a	n/a	2
806.252	0.0	target	5	806252	b	1	21.0	1	0.4208401	2
806.552	0.5	BAD keypress	1	806552	n/a	n/a	n/a	n/a	n/a	n/a
806.802	0.0	keypress	3	806802	n/a	n/a	n/a	n/a	n/a	n/a
808.452	0.0	nontarget	4	808452	j	0	40.0	n/a	n/a	2
811.001	0.0	nontarget	4	811001	ß	0	50.0	n/a	n/a	2
813.168	0.0	target	5	813168	v	1	27.0	1	0.4799548	2
813.535	0.5	BAD keypress	1	813535	n/a	n/a	n/a	n/a	n/a	n/a
813.785	0.0	keypress	3	813785	n/a	n/a	n/a	n/a	n/a	n/a
815.001	0.0	nontarget	4	815001	v	0	14.0	n/a	n/a	2
817.368	0.0	nontarget	4	817368	x	0	39.0	n/a	n/a	2
819.451	0.0	nontarget	4	819451	b	0	22.0	n/a	n/a	2
821.568	0.0	nontarget	4	821568	g	0	24.0	n/a	n/a	2
823.784	0.0	target	5	823784	t	1	30.0	1	0.4071324	2
824.101	0.5	BAD keypress	1	824101	n/a	n/a	n/a	n/a	n/a	n/a
824.351	0.0	keypress	3	824351	n/a	n/a	n/a	n/a	n/a	n/a
826.117	0.0	nontarget	4	826117	f	0	46.0	n/a	n/a	2
828.517	0.0	nontarget	4	828517	p	0	41.0	n/a	n/a	2
830.484	0.0	nontarget	4	830484	r	0	15.0	n/a	n/a	2
833.034	0.0	nontarget	4	833034	z	0	50.0	n/a	n/a	2
835.517	0.0	target	5	835517	x	1	46.0	1	0.497548	2
835.9	0.5	BAD keypress	1	835900	n/a	n/a	n/a	n/a	n/a	n/a
836.15	0.0	keypress	3	836150	n/a	n/a	n/a	n/a	n/a	n/a
837.834	0.0	nontarget	4	837834	u	0	41.0	n/a	n/a	2
839.9	0.0	nontarget	4	839900	ü	0	21.0	n/a	n/a	2
842.017	0.0	nontarget	4	842017	s	0	24.0	n/a	n/a	2
844.017	0.0	target	5	844017	ä	1	17.0	1	0.4932802	2
844.383	0.5	BAD keypress	1	844383	n/a	n/a	n/a	n/a	n/a	n/a
844.633	0.0	keypress	3	844633	n/a	n/a	n/a	n/a	n/a	n/a
846.133	0.0	nontarget	4	846133	o	0	31.0	n/a	n/a	2
848.483	0.0	nontarget	4	848483	i	0	38.0	n/a	n/a	2
850.533	0.0	nontarget	4	850533	e	0	20.0	n/a	n/a	2
852.633	0.0	target	5	852633	i	1	23.0	1	0.4684653	2
852.983	0.5	BAD keypress	1	852983	n/a	n/a	n/a	n/a	n/a	n/a
853.233	0.0	keypress	3	853233	n/a	n/a	n/a	n/a	n/a	n/a
854.949	0.0	nontarget	4	854949	v	0	44.0	n/a	n/a	2
857.483	0.0	nontarget	4	857483	l	0	49.0	n/a	n/a	2
859.566	0.0	nontarget	4	859566	w	0	22.0	n/a	n/a	2
861.616	0.0	nontarget	4	861616	o	0	20.0	n/a	n/a	2
864.082	0.0	nontarget	4	864082	ß	0	45.0	n/a	n/a	2
866.116	0.0	target	5	866116	i	1	19.0	1	0.5208554	2
866.499	0.5	BAD keypress	1	866499	n/a	n/a	n/a	n/a	n/a	n/a
866.749	0.0	keypress	3	866749	n/a	n/a	n/a	n/a	n/a	n/a
868.016	0.0	nontarget	4	868016	ö	0	17.0	n/a	n/a	2
870.032	0.0	nontarget	4	870032	d	0	18.0	n/a	n/a	2
872.349	0.0	nontarget	4	872349	p	0	36.0	n/a	n/a	2
874.599	0.0	nontarget	4	874599	v	0	32.0	n/a	n/a	2
875.699	19.881999999999948	BAD_break	2	875699	n/a	n/a	n/a	n/a	n/a	n/a
896.081	0.0	nontarget	4	896081	t	0	23.0	n/a	n/a	3
898.148	0.0	nontarget	4	898148	o	0	21.0	n/a	n/a	3
900.197	0.0	nontarget	4	900197	d	0	20.0	n/a	n/a	3
902.697	0.0	nontarget	4	902697	j	0	47.0	n/a	n/a	3
904.814	0.0	nontarget	4	904814	e	0	24.0	n/a	n/a	3
907.147	0.0	nontarget	4	907147	w	0	37.0	n/a	n/a	3
909.197	0.0	target	5	909197	r	1	20.0	1	0.5564485	3
909.63	0.5	BAD keypress	1	909630	n/a	n/a	n/a	n/a	n/a	n/a
909.88	0.0	keypress	3	909880	n/a	n/a	n/a	n/a	n/a	n/a
911.38	0.0	nontarget	4	911380	u	0	30.0	n/a	n/a	3
913.83	0.0	nontarget	4	913830	x	0	44.0	n/a	n/a	3
915.83	0.0	nontarget	4	915830	n	0	17.0	n/a	n/a	3
918.197	0.0	nontarget	4	918197	w	0	39.0	n/a	n/a	3
920.397	0.0	nontarget	4	920397	ö	0	29.0	n/a	n/a	3
922.93	0.0	nontarget	4	922930	i	0	49.0	n/a	n/a	3
925.23	0.0	target	5	925230	i	1	35.0	1	0.4587877	3
925.563	0.5	BAD keypress	1	925563	n/a	n/a	n/a	n/a	n/a	n/a
925.813	0.0	keypress	3	925813	n/a	n/a	n/a	n/a	n/a	n/a
927.363	0.0	nontarget	4	927363	e	0	34.0	n/a	n/a	3
929.33	0.0	target	5	929330	r	1	15.0	1	0.5507239	3
929.746	0.5	BAD keypress	1	929746	n/a	n/a	n/a	n/a	n/a	n/a
929.996	0.0	keypress	3	929996	n/a	n/a	n/a	n/a	n/a	n/a
931.646	0.0	nontarget	4	931646	ö	0	40.0	n/a	n/a	3
933.946	0.0	nontarget	4	933946	o	0	35.0	n/a	n/a	3
936.413	0.0	nontarget	4	936413	v	0	45.0	n/a	n/a	3
938.712	0.0	target	5	938712	g	1	35.0	1	0.4951691	3
939.063	0.5	BAD keypress	1	939063	n/a	n/a	n/a	n/a	n/a	n/a
939.313	0.0	keypress	3	939313	n/a	n/a	n/a	n/a	n/a	n/a
940.612	0.0	nontarget	4	940612	d	0	19.0	n/a	n/a	3
942.696	0.0	target	5	942696	b	1	22.0	1	0.4317677	3
942.996	0.5	BAD keypress	1	942996	n/a	n/a	n/a	n/a	n/a	n/a
943.246	0.0	keypress	3	943246	n/a	n/a	n/a	n/a	n/a	n/a
944.579	0.0	nontarget	4	944579	x	0	21.0	n/a	n/a	3
946.695	0.0	nontarget	4	946695	q	0	24.0	n/a	n/a	3
949.062	0.0	nontarget	4	949062	i	0	39.0	n/a	n/a	3
951.379	0.0	nontarget	4	951379	b	0	36.0	n/a	n/a	3
953.595	0.0	target	5	953595	a	1	30.0	1	0.4753572	3
953.962	0.5	BAD keypress	1	953962	n/a	n/a	n/a	n/a	n/a	n/a
954.212	0.0	keypress	3	954212	n/a	n/a	n/a	n/a	n/a	n/a
955.612	0.0	target	5	955612	d	1	24.0	1	0.4427011	3
955.945	0.5	BAD keypress	1	955945	n/a	n/a	n/a	n/a	n/a	n/a
956.195	0.0	keypress	3	956195	n/a	n/a	n/a	n/a	n/a	n/a
958.012	0.0	nontarget	4	958012	d	0	50.0	n/a	n/a	3
959.961	0.0	target	5	959961	h	1	14.0	1	0.5406375	3
960.378	0.5	BAD keypress	1	960378	n/a	n/a	n/a	n/a	n/a	n/a
960.628	0.0	keypress	3	960628	n/a	n/a	n/a	n/a	n/a	n/a
962.011	0.0	nontarget	4	962011	s	0	23.0	n/a	n/a	3
964.545	0.0	nontarget	4	964545	m	0	49.0	n/a	n/a	3
966.911	0.0	target	5	966911	f	1	39.0	1	0.5025146	3
967.261	0.5	BAD keypress	1	967261	n/a	n/a	n/a	n/a	n/a	n/a
967.511	0.0	keypress	3	967511	n/a	n/a	n/a	n/a	n/a	n/a
969.094	0.0	nontarget	4	969094	r	0	35.0	n/a	n/a	3
971.061	0.0	nontarget	4	971061	j	0	15.0	n/a	n/a	3
973.128	0.0	nontarget	4	973128	f	0	21.0	n/a	n/a	3
975.544	0.0	nontarget	4	975544	a	0	42.0	n/a	n/a	3
977.661	0.0	nontarget	4	977661	h	0	24.0	n/a	n/a	3
979.727	0.0	nontarget	4	979727	l	0	21.0	n/a	n/a	3
982.077	0.0	nontarget	4	982077	u	0	38.0	n/a	n/a	3
984.627	0.0	nontarget	4	984627	a	0	50.0	n/a	n/a	3
987.177	0.0	nontarget	4	987177	q	0	50.0	n/a	n/a	3
989.36	0.0	nontarget	4	989360	j	0	28.0	n/a	n/a	3
991.66	0.0	target	5	991660	a	1	35.0	1	0.5039154	3
992.027	0.5	BAD keypress	1	992027	n/a	n/a	n/a	n/a	n/a	n/a
992.277	0.0	keypress	3	992277	n/a	n/a	n/a	n/a	n/a	n/a
993.927	0.0	nontarget	4	993927	ä	0	39.0	n/a	n/a	3
996.41	0.0	target	5	996410	g	1	46.0	1	0.4578603	3
996.76	0.5	BAD keypress	1	996760	n/a	n/a	n/a	n/a	n/a	n/a
997.01	0.0	keypress	3	997010	n/a	n/a	n/a	n/a	n/a	n/a
998.426	0.0	target	5	998426	s	1	25.0	1	0.4571792	3
998.793	0.5	BAD keypress	1	998793	n/a	n/a	n/a	n/a	n/a	n/a
999.043	0.0	keypress	3	999043	n/a	n/a	n/a	n/a	n/a	n/a
1000.726	0.0	target	5	1000726	u	1	42.0	1	0.4290133	3
1001.06	0.5	BAD keypress	1	1001060	n/a	n/a	n/a	n/a	n/a	n/a
1001.31	0.0	keypress	3	1001310	n/a	n/a	n/a	n/a	n/a	n/a
1002.61	0.0	nontarget	4	1002610	a	0	19.0	n/a	n/a	3
1005.043	0.0	nontarget	4	1005043	j	0	43.0	n/a	n/a	3
1007.459	0.0	nontarget	4	1007459	q	0	42.0	n/a	n/a	3
1009.943	0.0	nontarget	4	1009943	z	0	46.0	n/a	n/a	3
1012.259	0.0	nontarget	4	1012259	ä	0	36.0	n/a	n/a	3
1014.559	0.0	nontarget	4	1014559	b	0	35.0	n/a	n/a	3
1016.526	0.0	nontarget	4	1016526	p	0	15.0	n/a	n/a	3
1018.626	0.0	nontarget	4	1018626	y	0	23.0	n/a	n/a	3
1020.942	0.0	nontarget	4	1020942	ä	0	36.0	n/a	n/a	3
1023.475	0.0	nontarget	4	1023475	o	0	49.0	n/a	n/a	3
1025.709	0.0	nontarget	4	1025709	h	0	31.0	n/a	n/a	3
1027.758	0.0	nontarget	4	1027758	ö	0	20.0	n/a	n/a	3
1030.058	0.0	nontarget	4	1030058	x	0	35.0	n/a	n/a	3
1032.158	0.0	nontarget	4	1032158	b	0	23.0	n/a	n/a	3
1034.575	0.0	nontarget	4	1034575	h	0	42.0	n/a	n/a	3
1036.525	0.0	nontarget	4	1036525	n	0	14.0	n/a	n/a	3
1038.725	0.0	nontarget	4	1038725	o	0	29.0	n/a	n/a	3
1040.775	0.0	nontarget	4	1040775	x	0	20.0	n/a	n/a	3
1041.875	22.48199999999997	BAD_break	2	1041875	n/a	n/a	n/a	n/a	n/a	n/a
1064.857	0.0	nontarget	4	1064857	c	0	15.0	n/a	n/a	4
1067.34	0.0	nontarget	4	1067340	k	0	46.0	n/a	n/a	4
1069.59	0.0	nontarget	4	1069590	f	0	32.0	n/a	n/a	4
1072.107	0.0	nontarget	4	1072107	t	0	48.0	n/a	n/a	4
1074.54	0.0	nontarget	4	1074540	ß	0	43.0	n/a	n/a	4
1076.54	0.0	nontarget	4	1076540	a	0	17.0	n/a	n/a	4
1078.556	0.0	target	5	1078556	e	1	18.0	1	0.529897	4
1078.99	0.5	BAD keypress	1	1078990	n/a	n/a	n/a	n/a	n/a	n/a
1079.24	0.0	keypress	3	1079240	n/a	n/a	n/a	n/a	n/a	n/a
1080.673	0.0	nontarget	4	1080673	y	0	26.0	n/a	n/a	4
1082.906	0.0	nontarget	4	1082906	n	0	31.0	n/a	n/a	4
1085.023	0.0	nontarget	4	1085023	g	0	24.0	n/a	n/a	4
1087.123	0.0	target	5	1087123	l	1	23.0	1	0.507026	4
1087.523	0.5	BAD keypress	1	1087523	n/a	n/a	n/a	n/a	n/a	n/a
1087.773	0.0	keypress	3	1087773	n/a	n/a	n/a	n/a	n/a	n/a
1089.139	0.0	nontarget	4	1089139	e	0	23.0	n/a	n/a	4
1091.689	0.0	target	5	1091689	x	1	50.0	1	0.4843084	4
1092.089	0.5	BAD keypress	1	1092089	n/a	n/a	n/a	n/a	n/a	n/a
1092.339	0.0	keypress	3	1092339	n/a	n/a	n/a	n/a	n/a	n/a
1093.889	0.0	nontarget	4	1093889	u	0	34.0	n/a	n/a	4
1095.905	0.0	nontarget	4	1095905	n	0	18.0	n/a	n/a	4
1098.039	0.0	nontarget	4	1098039	h	0	25.0	n/a	n/a	4
1100.472	0.0	nontarget	4	1100472	y	0	43.0	n/a	n/a	4
1102.555	0.0	nontarget	4	1102555	w	0	22.0	n/a	n/a	4
1104.538	0.0	target	5	1104538	z	1	16.0	1	0.5939639	4
1104.988	0.5	BAD keypress	1	1104988	n/a	n/a	n/a	n/a	n/a	n/a
1105.238	0.0	keypress	3	1105238	n/a	n/a	n/a	n/a	n/a	n/a
1106.955	0.0	target	5	1106955	f	1	43.0	1	0.4332513	4
1107.272	0.5	BAD keypress	1	1107272	n/a	n/a	n/a	n/a	n/a	n/a
1107.522	0.0	keypress	3	1107522	n/a	n/a	n/a	n/a	n/a	n/a
1108.788	0.0	nontarget	4	1108788	d	0	17.0	n/a	n/a	4
1110.821	0.0	nontarget	4	1110821	x	0	19.0	n/a	n/a	4
1113.255	0.0	target	5	1113255	d	1	43.0	1	0.4530591	4
1113.555	0.5	BAD keypress	1	1113555	n/a	n/a	n/a	n/a	n/a	n/a
1113.805	0.0	keypress	3	1113805	n/a	n/a	n/a	n/a	n/a	n/a
1115.088	0.0	nontarget	4	1115088	m	0	17.0	n/a	n/a	4
1117.388	0.0	nontarget	4	1117388	a	0	35.0	n/a	n/a	4
1119.621	0.0	nontarget	4	1119621	n	0	31.0	n/a	n/a	4
1122.038	0.0	nontarget	4	1122038	k	0	42.0	n/a	n/a	4
1124.054	0.0	nontarget	4	1124054	y	0	18.0	n/a	n/a	4
1126.454	0.0	nontarget	4	1126454	w	0	41.0	n/a	n/a	4
1128.871	0.0	nontarget	4	1128871	ß	0	42.0	n/a	n/a	4
1130.837	0.0	target	5	1130837	d	1	15.0	1	0.4694088	4
1131.154	0.5	BAD keypress	1	1131154	n/a	n/a	n/a	n/a	n/a	n/a
1131.404	0.0	keypress	3	1131404	n/a	n/a	n/a	n/a	n/a	n/a
1133.104	0.0	target	5	1133104	s	1	42.0	1	0.410669	4
1133.421	0.5	BAD keypress	1	1133421	n/a	n/a	n/a	n/a	n/a	n/a
1133.671	0.0	keypress	3	1133671	n/a	n/a	n/a	n/a	n/a	n/a
1134.987	0.0	nontarget	4	1134987	a	0	20.0	n/a	n/a	4
1137.237	0.0	nontarget	4	1137237	m	0	32.0	n/a	n/a	4
1139.22	0.0	nontarget	4	1139220	k	0	16.0	n/a	n/a	4
1141.387	0.0	nontarget	4	1141387	d	0	27.0	n/a	n/a	4
1143.47	0.0	nontarget	4	1143470	h	0	22.0	n/a	n/a	4
1145.97	0.0	nontarget	4	1145970	ä	0	47.0	n/a	n/a	4
1148.136	0.0	nontarget	4	1148136	b	0	27.0	n/a	n/a	4
1150.403	0.0	nontarget	4	1150403	d	0	33.0	n/a	n/a	4
1152.42	0.0	target	5	1152420	j	1	18.0	1	0.533536	4
1152.82	0.5	BAD keypress	1	1152820	n/a	n/a	n/a	n/a	n/a	n/a
1153.07	0.0	keypress	3	1153070	n/a	n/a	n/a	n/a	n/a	n/a
1154.303	0.0	target	5	1154303	g	1	15.0	1	0.4581966	4
1154.653	0.5	BAD keypress	1	1154653	n/a	n/a	n/a	n/a	n/a	n/a
1154.903	0.0	keypress	3	1154903	n/a	n/a	n/a	n/a	n/a	n/a
1156.569	0.0	nontarget	4	1156569	a	0	41.0	n/a	n/a	4
1158.753	0.0	nontarget	4	1158753	u	0	28.0	n/a	n/a	4
1161.303	0.0	nontarget	4	1161303	c	0	50.0	n/a	n/a	4
1163.836	0.0	nontarget	4	1163836	w	0	49.0	n/a	n/a	4
1165.852	0.0	nontarget	4	1165852	q	0	18.0	n/a	n/a	4
1168.352	0.0	target	5	1168352	h	1	47.0	1	0.4078105	4
1168.652	0.5	BAD keypress	1	1168652	n/a	n/a	n/a	n/a	n/a	n/a
1168.902	0.0	keypress	3	1168902	n/a	n/a	n/a	n/a	n/a	n/a
1170.269	0.0	nontarget	4	1170269	o	0	22.0	n/a	n/a	4
1172.635	0.0	target	5	1172635	b	1	39.0	1	0.5083896	4
1173.019	0.5	BAD keypress	1	1173019	n/a	n/a	n/a	n/a	n/a	n/a
1173.269	0.0	keypress	3	1173269	n/a	n/a	n/a	n/a	n/a	n/a
1174.635	0.0	nontarget	4	1174635	c	0	23.0	n/a	n/a	4
1176.785	0.0	nontarget	4	1176785	l	0	26.0	n/a	n/a	4
1178.952	0.0	nontarget	4	1178952	w	0	27.0	n/a	n/a	4
1181.318	0.0	nontarget	4	1181318	f	0	39.0	n/a	n/a	4
1183.635	0.0	nontarget	4	1183635	h	0	36.0	n/a	n/a	4
1186.118	0.0	nontarget	4	1186118	k	0	46.0	n/a	n/a	4
1188.618	0.0	nontarget	4	1188618	q	0	47.0	n/a	n/a	4
1191.101	0.0	nontarget	4	1191101	n	0	46.0	n/a	n/a	4
1193.334	0.0	nontarget	4	1193334	w	0	31.0	n/a	n/a	4
1195.618	0.0	nontarget	4	1195618	s	0	34.0	n/a	n/a	4
1197.901	0.0	nontarget	4	1197901	t	0	34.0	n/a	n/a	4
1199.984	0.0	nontarget	4	1199984	n	0	22.0	n/a	n/a	4
1202.434	0.0	nontarget	4	1202434	g	0	44.0	n/a	n/a	4
1204.384	0.0	nontarget	4	1204384	b	0	14.0	n/a	n/a	4
1206.351	0.0	nontarget	4	1206351	f	0	15.0	n/a	n/a	4
1208.45	0.0	nontarget	4	1208450	ß	0	23.0	n/a	n/a	4
1209.55	22.71600000000012	BAD_break	2	1209550	n/a	n/a	n/a	n/a	n/a	n/a
1232.766	0.0	nontarget	4	1232766	i	0	24.0	n/a	n/a	5
1235.283	0.0	nontarget	4	1235283	o	0	48.0	n/a	n/a	5
1237.266	0.0	nontarget	4	1237266	u	0	16.0	n/a	n/a	5
1239.699	0.0	nontarget	4	1239699	r	0	43.0	n/a	n/a	5
1241.749	0.0	nontarget	4	1241749	ü	0	20.0	n/a	n/a	5
1244.149	0.0	nontarget	4	1244149	e	0	41.0	n/a	n/a	5
1246.099	0.0	nontarget	4	1246099	y	0	14.0	n/a	n/a	5
1248.415	0.0	nontarget	4	1248415	s	0	36.0	n/a	n/a	5
1250.382	0.0	target	5	1250382	z	1	15.0	1	0.5325569	5
1250.815	0.5	BAD keypress	1	1250815	n/a	n/a	n/a	n/a	n/a	n/a
1251.065	0.0	keypress	3	1251065	n/a	n/a	n/a	n/a	n/a	n/a
1252.649	0.0	nontarget	4	1252649	n	0	35.0	n/a	n/a	5
1255.015	0.0	nontarget	4	1255015	b	0	39.0	n/a	n/a	5
1257.498	0.0	nontarget	4	1257498	o	0	46.0	n/a	n/a	5
1259.548	0.0	nontarget	4	1259548	j	0	20.0	n/a	n/a	5
1262.048	0.0	target	5	1262048	y	1	47.0	1	0.5136112	5
1262.465	0.5	BAD keypress	1	1262465	n/a	n/a	n/a	n/a	n/a	n/a
1262.715	0.0	keypress	3	1262715	n/a	n/a	n/a	n/a	n/a	n/a
1264.381	0.0	target	5	1264381	ü	1	41.0	1	0.484324	5
1264.731	0.5	BAD keypress	1	1264731	n/a	n/a	n/a	n/a	n/a	n/a
1264.981	0.0	keypress	3	1264981	n/a	n/a	n/a	n/a	n/a	n/a
1266.481	0.0	nontarget	4	1266481	ö	0	30.0	n/a	n/a	5
1268.748	0.0	target	5	1268748	p	1	33.0	1	0.4694419	5
1269.065	0.5	BAD keypress	1	1269065	n/a	n/a	n/a	n/a	n/a	n/a
1269.315	0.0	keypress	3	1269315	n/a	n/a	n/a	n/a	n/a	n/a
1270.948	0.0	nontarget	4	1270948	x	0	39.0	n/a	n/a	5
1273.031	0.0	nontarget	4	1273031	ß	0	22.0	n/a	n/a	5
1275.031	0.0	nontarget	4	1275031	g	0	17.0	n/a	n/a	5
1277.364	0.0	nontarget	4	1277364	t	0	37.0	n/a	n/a	5
1279.914	0.0	nontarget	4	1279914	i	0	50.0	n/a	n/a	5
1282.181	0.0	target	5	1282181	k	1	33.0	1	0.4758887	5
1282.514	0.5	BAD keypress	1	1282514	n/a	n/a	n/a	n/a	n/a	n/a
1282.764	0.0	keypress	3	1282764	n/a	n/a	n/a	n/a	n/a	n/a
1284.03	0.0	nontarget	4	1284030	b	0	17.0	n/a	n/a	5
1286.047	0.0	nontarget	4	1286047	q	0	18.0	n/a	n/a	5
1288.197	0.0	nontarget	4	1288197	f	0	26.0	n/a	n/a	5
1290.514	0.0	nontarget	4	1290514	p	0	36.0	n/a	n/a	5
1292.88	0.0	target	5	1292880	o	1	39.0	1	0.4795591	5
1293.247	0.5	BAD keypress	1	1293247	n/a	n/a	n/a	n/a	n/a	n/a
1293.497	0.0	keypress	3	1293497	n/a	n/a	n/a	n/a	n/a	n/a
1295.063	0.0	nontarget	4	1295063	j	0	35.0	n/a	n/a	5
1297.347	0.0	nontarget	4	1297347	f	0	34.0	n/a	n/a	5
1299.596	0.0	target	5	1299596	f	1	32.0	1	0.4827816	5
1299.93	0.5	BAD keypress	1	1299930	n/a	n/a	n/a	n/a	n/a	n/a
1300.18	0.0	keypress	3	1300180	n/a	n/a	n/a	n/a	n/a	n/a
1301.813	0.0	nontarget	4	1301813	h	0	38.0	n/a	n/a	5
1304.146	0.0	nontarget	4	1304146	i	0	37.0	n/a	n/a	5
1306.396	0.0	nontarget	4	1306396	p	0	32.0	n/a	n/a	5
1308.513	0.0	nontarget	4	1308513	ü	0	24.0	n/a	n/a	5
1310.463	0.0	target	5	1310463	ü	1	14.0	1	0.5118787	5
1310.813	0.5	BAD keypress	1	1310813	n/a	n/a	n/a	n/a	n/a	n/a
1311.063	0.0	keypress	3	1311063	n/a	n/a	n/a	n/a	n/a	n/a
1312.413	0.0	nontarget	4	1312413	q	0	22.0	n/a	n/a	5
1314.912	0.0	nontarget	4	1314912	ß	0	47.0	n/a	n/a	5
1317.412	0.0	nontarget	4	1317412	c	0	47.0	n/a	n/a	5
1319.446	0.0	nontarget	4	1319446	y	0	19.0	n/a	n/a	5
1321.612	0.0	nontarget	4	1321612	f	0	27.0	n/a	n/a	5
1324.162	0.0	nontarget	4	1324162	j	0	50.0	n/a	n/a	5
1326.662	0.0	nontarget	4	1326662	a	0	47.0	n/a	n/a	5
1329.162	0.0	nontarget	4	1329162	q	0	47.0	n/a	n/a	5
1331.645	0.0	nontarget	4	1331645	m	0	46.0	n/a	n/a	5
1334.095	0.0	nontarget	4	1334095	s	0	44.0	n/a	n/a	5
1336.412	0.0	nontarget	4	1336412	i	0	36.0	n/a	n/a	5
1338.461	0.0	nontarget	4	1338461	z	0	20.0	n/a	n/a	5
1340.511	0.0	target	5	1340511	e	1	20.0	1	0.5730932	5
1340.995	0.5	BAD keypress	1	1340995	n/a	n/a	n/a	n/a	n/a	n/a
1341.245	0.0	keypress	3	1341245	n/a	n/a	n/a	n/a	n/a	n/a
1342.928	0.0	nontarget	4	1342928	e	0	42.0	n/a	n/a	5
1345.028	0.0	nontarget	4	1345028	j	0	23.0	n/a	n/a	5
1347.294	0.0	nontarget	4	1347294	p	0	33.0	n/a	n/a	5
1349.311	0.0	nontarget	4	1349311	ö	0	18.0	n/a	n/a	5
1351.478	0.0	target	5	1351478	c	1	27.0	1	0.4702073	5
1351.844	0.5	BAD keypress	1	1351844	n/a	n/a	n/a	n/a	n/a	n/a
1352.094	0.0	keypress	3	1352094	n/a	n/a	n/a	n/a	n/a	n/a
1353.877	0.0	nontarget	4	1353877	c	0	48.0	n/a	n/a	5
1356.061	0.0	nontarget	4	1356061	o	0	28.0	n/a	n/a	5
1358.261	0.0	target	5	1358261	p	1	29.0	1	0.4547544	5
1358.611	0.5	BAD keypress	1	1358611	n/a	n/a	n/a	n/a	n/a	n/a
1358.861	0.0	keypress	3	1358861	n/a	n/a	n/a	n/a	n/a	n/a
1360.344	0.0	nontarget	4	1360344	h	0	30.0	n/a	n/a	5
1362.694	0.0	nontarget	4	1362694	u	0	38.0	n/a	n/a	5
1365.077	0.0	nontarget	4	1365077	q	0	40.0	n/a	n/a	5
1367.077	0.0	nontarget	4	1367077	p	0	17.0	n/a	n/a	5
1369.543	0.0	nontarget	4	1369543	h	0	45.0	n/a	n/a	5
1371.627	0.0	target	5	1371627	u	1	22.0	1	0.4637063	5
1371.993	0.5	BAD keypress	1	1371993	n/a	n/a	n/a	n/a	n/a	n/a
1372.243	0.0	keypress	3	1372243	n/a	n/a	n/a	n/a	n/a	n/a
1373.86	0.0	nontarget	4	1373860	a	0	38.0	n/a	n/a	5
1375.943	0.0	target	5	1375943	h	1	22.0	1	0.5309937	5
1376.41	0.5	BAD keypress	1	1376410	n/a	n/a	n/a	n/a	n/a	n/a
1376.66	0.0	keypress	3	1376660	n/a	n/a	n/a	n/a	n/a	n/a
1378.16	0.0	nontarget	4	1378160	p	0	31.0	n/a	n/a	5
1379.26	20.73199999999997	BAD_break	2	1379260	n/a	n/a	n/a	n/a	n/a	n/a
1400.492	0.0	target	5	1400492	u	1	46.0	1	0.4604255	6
1400.842	0.5	BAD keypress	1	1400842	n/a	n/a	n/a	n/a	n/a	n/a
1401.092	0.0	keypress	3	1401092	n/a	n/a	n/a	n/a	n/a	n/a
1402.709	0.0	nontarget	4	1402709	y	0	37.0	n/a	n/a	6
1404.859	0.0	nontarget	4	1404859	g	0	26.0	n/a	n/a	6
1406.825	0.0	nontarget	4	1406825	t	0	15.0	n/a	n/a	6
1408.992	0.0	nontarget	4	1408992	s	0	27.0	n/a	n/a	6
1411.242	0.0	nontarget	4	1411242	f	0	32.0	n/a	n/a	6
1413.541	0.0	nontarget	4	1413541	p	0	35.0	n/a	n/a	6
1415.608	0.0	nontarget	4	1415608	v	0	21.0	n/a	n/a	6
1417.958	0.0	nontarget	4	1417958	t	0	38.0	n/a	n/a	6
1420.191	0.0	nontarget	4	1420191	m	0	31.0	n/a	n/a	6
1422.324	0.0	nontarget	4	1422324	c	0	25.0	n/a	n/a	6
1424.291	0.0	target	5	1424291	c	1	15.0	1	0.5157939	6
1424.658	0.5	BAD keypress	1	1424658	n/a	n/a	n/a	n/a	n/a	n/a
1424.908	0.0	keypress	3	1424908	n/a	n/a	n/a	n/a	n/a	n/a
1426.524	0.0	nontarget	4	1426524	a	0	38.0	n/a	n/a	6
1428.674	0.0	nontarget	4	1428674	g	0	26.0	n/a	n/a	6
1430.924	0.0	nontarget	4	1430924	e	0	32.0	n/a	n/a	6
1433.174	0.0	target	5	1433174	i	1	32.0	1	0.5282956	6
1433.574	0.5	BAD keypress	1	1433574	n/a	n/a	n/a	n/a	n/a	n/a
1433.824	0.0	keypress	3	1433824	n/a	n/a	n/a	n/a	n/a	n/a
1435.307	0.0	nontarget	4	1435307	c	0	30.0	n/a	n/a	6
1437.557	0.0	nontarget	4	1437557	r	0	32.0	n/a	n/a	6
1439.557	0.0	nontarget	4	1439557	k	0	17.0	n/a	n/a	6
1442.007	0.0	target	5	1442007	m	1	44.0	1	0.4627704	6
1442.324	0.5	BAD keypress	1	1442324	n/a	n/a	n/a	n/a	n/a	n/a
1442.574	0.0	keypress	3	1442574	n/a	n/a	n/a	n/a	n/a	n/a
1443.873	0.0	nontarget	4	1443873	h	0	18.0	n/a	n/a	6
1445.94	0.0	nontarget	4	1445940	ö	0	21.0	n/a	n/a	6
1448.157	0.0	nontarget	4	1448157	v	0	30.0	n/a	n/a	6
1450.44	0.0	nontarget	4	1450440	t	0	34.0	n/a	n/a	6
1452.39	0.0	nontarget	4	1452390	m	0	14.0	n/a	n/a	6
1454.39	0.0	nontarget	4	1454390	p	0	17.0	n/a	n/a	6
1456.423	0.0	target	5	1456423	r	1	19.0	1	0.509712	6
1456.773	0.5	BAD keypress	1	1456773	n/a	n/a	n/a	n/a	n/a	n/a
1457.023	0.0	keypress	3	1457023	n/a	n/a	n/a	n/a	n/a	n/a
1458.356	0.0	nontarget	4	1458356	y	0	21.0	n/a	n/a	6
1460.606	0.0	target	5	1460606	j	1	32.0	1	0.5022816	6
1461.006	0.5	BAD keypress	1	1461006	n/a	n/a	n/a	n/a	n/a	n/a
1461.256	0.0	keypress	3	1461256	n/a	n/a	n/a	n/a	n/a	n/a
1463.023	0.0	nontarget	4	1463023	ß	0	46.0	n/a	n/a	6
1465.423	0.0	nontarget	4	1465423	d	0	41.0	n/a	n/a	6
1467.756	0.0	nontarget	4	1467756	b	0	37.0	n/a	n/a	6
1470.139	0.0	nontarget	4	1470139	f	0	40.0	n/a	n/a	6
1472.322	0.0	nontarget	4	1472322	n	0	28.0	n/a	n/a	6
1474.322	0.0	nontarget	4	1474322	v	0	17.0	n/a	n/a	6
1476.555	0.0	target	5	1476555	h	1	31.0	1	0.4399633	6
1476.889	0.5	BAD keypress	1	1476889	n/a	n/a	n/a	n/a	n/a	n/a
1477.139	0.0	keypress	3	1477139	n/a	n/a	n/a	n/a	n/a	n/a
1478.355	0.0	nontarget	4	1478355	s	0	14.0	n/a	n/a	6
1480.839	0.0	nontarget	4	1480839	a	0	46.0	n/a	n/a	6
1482.922	0.0	nontarget	4	1482922	g	0	22.0	n/a	n/a	6
1484.972	0.0	nontarget	4	1484972	z	0	20.0	n/a	n/a	6
1487.105	0.0	nontarget	4	1487105	f	0	25.0	n/a	n/a	6
1489.255	0.0	nontarget	4	1489255	v	0	26.0	n/a	n/a	6
1491.571	0.0	nontarget	4	1491571	r	0	36.0	n/a	n/a	6
1493.988	0.0	nontarget	4	1493988	s	0	42.0	n/a	n/a	6
1496.321	0.0	nontarget	4	1496321	h	0	37.0	n/a	n/a	6
1498.354	0.0	nontarget	4	1498354	d	0	19.0	n/a	n/a	6
1500.821	0.0	nontarget	4	1500821	f	0	45.0	n/a	n/a	6
1502.871	0.0	nontarget	4	1502871	l	0	20.0	n/a	n/a	6
1504.887	0.0	nontarget	4	1504887	ü	0	18.0	n/a	n/a	6
1507.071	0.0	target	5	1507071	f	1	28.0	1	0.466538	6
1507.421	0.5	BAD keypress	1	1507421	n/a	n/a	n/a	n/a	n/a	n/a
1507.671	0.0	keypress	3	1507671	n/a	n/a	n/a	n/a	n/a	n/a
1509.187	0.0	nontarget	4	1509187	f	0	32.0	n/a	n/a	6
1511.137	0.0	nontarget	4	1511137	k	0	14.0	n/a	n/a	6
1513.654	0.0	nontarget	4	1513654	y	0	48.0	n/a	n/a	6
1515.92	0.0	nontarget	4	1515920	x	0	33.0	n/a	n/a	6
1518.054	0.0	target	5	1518054	g	1	25.0	1	0.5229086	6
1518.47	0.5	BAD keypress	1	1518470	n/a	n/a	n/a	n/a	n/a	n/a
1518.72	0.0	keypress	3	1518720	n/a	n/a	n/a	n/a	n/a	n/a
1520.237	0.0	nontarget	4	1520237	m	0	32.0	n/a	n/a	6
1522.77	0.0	nontarget	4	1522770	u	0	49.0	n/a	n/a	6
1524.803	0.0	nontarget	4	1524803	h	0	19.0	n/a	n/a	6
1526.986	0.0	nontarget	4	1526986	ß	0	28.0	n/a	n/a	6
1529.236	0.0	target	5	1529236	n	1	32.0	1	0.4593758	6
1529.57	0.5	BAD keypress	1	1529570	n/a	n/a	n/a	n/a	n/a	n/a
1529.82	0.0	keypress	3	1529820	n/a	n/a	n/a	n/a	n/a	n/a
1531.153	0.0	nontarget	4	1531153	k	0	21.0	n/a	n/a	6
1533.453	0.0	nontarget	4	1533453	l	0	35.0	n/a	n/a	6
1535.903	0.0	nontarget	4	1535903	r	0	44.0	n/a	n/a	6
1538.419	0.0	nontarget	4	1538419	g	0	48.0	n/a	n/a	6
1540.519	0.0	nontarget	4	1540519	ä	0	23.0	n/a	n/a	6
1542.719	0.0	nontarget	4	1542719	t	0	29.0	n/a	n/a	6
1543.819	17.232999999999947	BAD_break	2	1543819	n/a	n/a	n/a	n/a	n/a	n/a
1561.552	0.0	nontarget	4	1561552	k	0	39.0	n/a	n/a	7
1563.668	0.0	nontarget	4	1563668	y	0	24.0	n/a	n/a	7
1566.068	0.0	target	5	1566068	i	1	41.0	1	0.5051066	7
1566.435	0.5	BAD keypress	1	1566435	n/a	n/a	n/a	n/a	n/a	n/a
1566.685	0.0	keypress	3	1566685	n/a	n/a	n/a	n/a	n/a	n/a
1568.285	0.0	target	5	1568285	j	1	36.0	1	0.4964742	7
1568.651	0.5	BAD keypress	1	1568651	n/a	n/a	n/a	n/a	n/a	n/a
1568.901	0.0	keypress	3	1568901	n/a	n/a	n/a	n/a	n/a	n/a
1570.218	0.0	nontarget	4	1570218	q	0	19.0	n/a	n/a	7
1572.218	0.0	nontarget	4	1572218	g	0	17.0	n/a	n/a	7
1574.568	0.0	nontarget	4	1574568	ä	0	38.0	n/a	n/a	7
1576.984	0.0	nontarget	4	1576984	f	0	42.0	n/a	n/a	7
1579.501	0.0	target	5	1579501	ü	1	48.0	1	0.4635197	7
1579.868	0.5	BAD keypress	1	1579868	n/a	n/a	n/a	n/a	n/a	n/a
1580.118	0.0	keypress	3	1580118	n/a	n/a	n/a	n/a	n/a	n/a
1581.634	0.0	nontarget	4	1581634	l	0	31.0	n/a	n/a	7
1584.167	0.0	target	5	1584167	s	1	49.0	1	0.436605	7
1584.484	0.5	BAD keypress	1	1584484	n/a	n/a	n/a	n/a	n/a	n/a
1584.734	0.0	keypress	3	1584734	n/a	n/a	n/a	n/a	n/a	n/a
1586.134	0.0	nontarget	4	1586134	g	0	25.0	n/a	n/a	7
1588.634	0.0	nontarget	4	1588634	ä	0	47.0	n/a	n/a	7
1591.084	0.0	nontarget	4	1591084	v	0	44.0	n/a	n/a	7
1593.634	0.0	nontarget	4	1593634	x	0	50.0	n/a	n/a	7
1595.967	0.0	target	5	1595967	l	1	37.0	1	0.4443447	7
1596.267	0.5	BAD keypress	1	1596267	n/a	n/a	n/a	n/a	n/a	n/a
1596.517	0.0	keypress	3	1596517	n/a	n/a	n/a	n/a	n/a	n/a
1597.967	0.0	nontarget	4	1597967	g	0	28.0	n/a	n/a	7
1600.383	0.0	nontarget	4	1600383	z	0	42.0	n/a	n/a	7
1602.65	0.0	target	5	1602650	a	1	33.0	1	0.4648434	7
1602.983	0.5	BAD keypress	1	1602983	n/a	n/a	n/a	n/a	n/a	n/a
1603.233	0.0	keypress	3	1603233	n/a	n/a	n/a	n/a	n/a	n/a
1604.85	0.0	target	5	1604850	j	1	38.0	1	0.4568546	7
1605.2	0.5	BAD keypress	1	1605200	n/a	n/a	n/a	n/a	n/a	n/a
1605.45	0.0	keypress	3	1605450	n/a	n/a	n/a	n/a	n/a	n/a
1607.25	0.0	nontarget	4	1607250	r	0	48.0	n/a	n/a	7
1609.75	0.0	nontarget	4	1609750	z	0	47.0	n/a	n/a	7
1612.066	0.0	nontarget	4	1612066	y	0	36.0	n/a	n/a	7
1614.116	0.0	nontarget	4	1614116	ß	0	20.0	n/a	n/a	7
1616.066	0.0	target	5	1616066	ä	1	14.0	1	0.4879045	7
1616.449	0.5	BAD keypress	1	1616449	n/a	n/a	n/a	n/a	n/a	n/a
1616.699	0.0	keypress	3	1616699	n/a	n/a	n/a	n/a	n/a	n/a
1618.332	0.0	nontarget	4	1618332	a	0	39.0	n/a	n/a	7
1620.799	0.0	target	5	1620799	u	1	45.0	1	0.4744232	7
1621.149	0.5	BAD keypress	1	1621149	n/a	n/a	n/a	n/a	n/a	n/a
1621.399	0.0	keypress	3	1621399	n/a	n/a	n/a	n/a	n/a	n/a
1622.999	0.0	nontarget	4	1622999	p	0	36.0	n/a	n/a	7
1625.216	0.0	nontarget	4	1625216	ß	0	30.0	n/a	n/a	7
1627.449	0.0	nontarget	4	1627449	u	0	31.0	n/a	n/a	7
1629.399	0.0	nontarget	4	1629399	f	0	14.0	n/a	n/a	7
1631.765	0.0	nontarget	4	1631765	d	0	39.0	n/a	n/a	7
1633.849	0.0	nontarget	4	1633849	s	0	22.0	n/a	n/a	7
1635.915	0.0	nontarget	4	1635915	r	0	21.0	n/a	n/a	7
1637.882	0.0	nontarget	4	1637882	k	0	15.0	n/a	n/a	7
1640.298	0.0	target	5	1640298	t	1	42.0	1	0.4459837	7
1640.615	0.5	BAD keypress	1	1640615	n/a	n/a	n/a	n/a	n/a	n/a
1640.865	0.0	keypress	3	1640865	n/a	n/a	n/a	n/a	n/a	n/a
1642.465	0.0	target	5	1642465	ä	1	37.0	1	0.4232455	7
1642.782	0.5	BAD keypress	1	1642782	n/a	n/a	n/a	n/a	n/a	n/a
1643.032	0.0	keypress	3	1643032	n/a	n/a	n/a	n/a	n/a	n/a
1644.281	0.0	nontarget	4	1644281	j	0	16.0	n/a	n/a	7
1646.548	0.0	nontarget	4	1646548	x	0	33.0	n/a	n/a	7
1648.831	0.0	nontarget	4	1648831	i	0	34.0	n/a	n/a	7
1651.098	0.0	nontarget	4	1651098	z	0	33.0	n/a	n/a	7
1653.331	0.0	nontarget	4	1653331	p	0	31.0	n/a	n/a	7
1655.414	0.0	nontarget	4	1655414	j	0	22.0	n/a	n/a	7
1657.814	0.0	nontarget	4	1657814	ä	0	41.0	n/a	n/a	7
1659.781	0.0	target	5	1659781	k	1	15.0	1	0.4822031	7
1660.164	0.5	BAD keypress	1	1660164	n/a	n/a	n/a	n/a	n/a	n/a
1660.414	0.0	keypress	3	1660414	n/a	n/a	n/a	n/a	n/a	n/a
1662.131	0.0	target	5	1662131	o	1	43.0	1	0.4362265	7
1662.431	0.5	BAD keypress	1	1662431	n/a	n/a	n/a	n/a	n/a	n/a
1662.681	0.0	keypress	3	1662681	n/a	n/a	n/a	n/a	n/a	n/a
1664.397	0.0	nontarget	4	1664397	l	0	44.0	n/a	n/a	7
1666.78	0.0	target	5	1666780	l	1	40.0	1	0.5220206	7
1667.18	0.5	BAD keypress	1	1667180	n/a	n/a	n/a	n/a	n/a	n/a
1667.43	0.0	keypress	3	1667430	n/a	n/a	n/a	n/a	n/a	n/a
1668.764	0.0	nontarget	4	1668764	ß	0	21.0	n/a	n/a	7
1670.897	0.0	nontarget	4	1670897	m	0	25.0	n/a	n/a	7
1673.363	0.0	nontarget	4	1673363	ä	0	45.0	n/a	n/a	7
1675.63	0.0	nontarget	4	1675630	e	0	33.0	n/a	n/a	7
1678.113	0.0	nontarget	4	1678113	ü	0	46.0	n/a	n/a	7
1680.396	0.0	nontarget	4	1680396	m	0	34.0	n/a	n/a	7
1682.946	0.0	nontarget	4	1682946	c	0	50.0	n/a	n/a	7
1685.363	0.0	nontarget	4	1685363	v	0	42.0	n/a	n/a	7
1687.646	0.0	nontarget	4	1687646	f	0	34.0	n/a	n/a	7
1689.996	0.0	nontarget	4	1689996	w	0	38.0	n/a	n/a	7
1692.246	0.0	nontarget	4	1692246	l	0	32.0	n/a	n/a	7
1694.796	0.0	nontarget	4	1694796	n	0	50.0	n/a	n/a	7
1697.029	0.0	nontarget	4	1697029	b	0	31.0	n/a	n/a	7
1699.362	0.0	nontarget	4	1699362	i	0	37.0	n/a	n/a	7
1701.912	0.0	nontarget	4	1701912	l	0	50.0	n/a	n/a	7
1704.312	0.0	nontarget	4	1704312	ä	0	41.0	n/a	n/a	7
1706.862	0.0	nontarget	4	1706862	ö	0	50.0	n/a	n/a	7
1709.262	0.0	nontarget	4	1709262	j	0	41.0	n/a	n/a	7
1710.362	146.4430000000002	BAD_break	2	1710362	n/a	n/a	n/a	n/a	n/a	n/a
1857.305	0.0	nontarget	4	1857305	d	0	40.0	n/a	n/a	8
1859.372	0.0	nontarget	4	1859372	r	0	21.0	n/a	n/a	8
1861.422	0.0	nontarget	4	1861422	c	0	20.0	n/a	n/a	8
1863.438	0.0	nontarget	4	1863438	n	0	18.0	n/a	n/a	8
1865.938	0.0	nontarget	4	1865938	ä	0	47.0	n/a	n/a	8
1868.455	0.0	nontarget	4	1868455	p	0	48.0	n/a	n/a	8
1870.605	0.0	nontarget	4	1870605	h	0	26.0	n/a	n/a	8
1872.705	0.0	nontarget	4	1872705	ü	0	23.0	n/a	n/a	8
1874.855	0.0	nontarget	4	1874855	d	0	26.0	n/a	n/a	8
1877.204	0.0	nontarget	4	1877204	i	0	38.0	n/a	n/a	8
1879.538	0.0	nontarget	4	1879538	q	0	37.0	n/a	n/a	8
1881.538	0.0	nontarget	4	1881538	ö	0	17.0	n/a	n/a	8
1883.521	0.0	nontarget	4	1883521	t	0	16.0	n/a	n/a	8
1885.521	0.0	nontarget	4	1885521	o	0	17.0	n/a	n/a	8
1887.887	0.0	nontarget	4	1887887	s	0	39.0	n/a	n/a	8
1890.421	0.0	nontarget	4	1890421	f	0	49.0	n/a	n/a	8
1892.521	0.0	target	5	1892521	x	1	23.0	1	0.494628	8
1892.871	0.5	BAD keypress	1	1892871	n/a	n/a	n/a	n/a	n/a	n/a
1893.121	0.0	keypress	3	1893121	n/a	n/a	n/a	n/a	n/a	n/a
1894.487	0.0	nontarget	4	1894487	z	0	22.0	n/a	n/a	8
1896.787	0.0	target	5	1896787	m	1	35.0	1	0.452002	8
1897.137	0.5	BAD keypress	1	1897137	n/a	n/a	n/a	n/a	n/a	n/a
1897.387	0.0	keypress	3	1897387	n/a	n/a	n/a	n/a	n/a	n/a
1898.737	0.0	nontarget	4	1898737	f	0	22.0	n/a	n/a	8
1900.937	0.0	nontarget	4	1900937	e	0	29.0	n/a	n/a	8
1903.02	0.0	nontarget	4	1903020	v	0	22.0	n/a	n/a	8
1905.053	0.0	target	5	1905053	u	1	19.0	1	0.4410239	8
1905.37	0.5	BAD keypress	1	1905370	n/a	n/a	n/a	n/a	n/a	n/a
1905.62	0.0	keypress	3	1905620	n/a	n/a	n/a	n/a	n/a	n/a
1907.103	0.0	nontarget	4	1907103	ü	0	30.0	n/a	n/a	8
1909.42	0.0	nontarget	4	1909420	p	0	36.0	n/a	n/a	8
1911.47	0.0	target	5	1911470	o	1	20.0	1	0.4562227	8
1911.82	0.5	BAD keypress	1	1911820	n/a	n/a	n/a	n/a	n/a	n/a
1912.07	0.0	keypress	3	1912070	n/a	n/a	n/a	n/a	n/a	n/a
1913.37	0.0	nontarget	4	1913370	o	0	19.0	n/a	n/a	8
1915.569	0.0	target	5	1915569	n	1	29.0	1	0.4201263	8
1915.853	0.5	BAD keypress	1	1915853	n/a	n/a	n/a	n/a	n/a	n/a
1916.103	0.0	keypress	3	1916103	n/a	n/a	n/a	n/a	n/a	n/a
1917.669	0.0	nontarget	4	1917669	i	0	35.0	n/a	n/a	8
1920.186	0.0	nontarget	4	1920186	s	0	48.0	n/a	n/a	8
1922.619	0.0	nontarget	4	1922619	ä	0	43.0	n/a	n/a	8
1924.719	0.0	nontarget	4	1924719	v	0	23.0	n/a	n/a	8
1926.736	0.0	nontarget	4	1926736	u	0	18.0	n/a	n/a	8
1929.069	0.0	nontarget	4	1929069	i	0	37.0	n/a	n/a	8
1931.152	0.0	target	5	1931152	d	1	22.0	1	0.4845061	8
1931.502	0.5	BAD keypress	1	1931502	n/a	n/a	n/a	n/a	n/a	n/a
1931.752	0.0	keypress	3	1931752	n/a	n/a	n/a	n/a	n/a	n/a
1933.552	0.0	nontarget	4	1933552	j	0	48.0	n/a	n/a	8
1935.535	0.0	nontarget	4	1935535	y	0	16.0	n/a	n/a	8
1937.519	0.0	nontarget	4	1937519	b	0	16.0	n/a	n/a	8
1939.718	0.0	target	5	1939718	y	1	29.0	1	0.4296151	8
1940.035	0.5	BAD keypress	1	1940035	n/a	n/a	n/a	n/a	n/a	n/a
1940.285	0.0	keypress	3	1940285	n/a	n/a	n/a	n/a	n/a	n/a
1942.018	0.0	target	5	1942018	n	1	45.0	1	0.4336023	8
1942.335	0.5	BAD keypress	1	1942335	n/a	n/a	n/a	n/a	n/a	n/a
1942.585	0.0	keypress	3	1942585	n/a	n/a	n/a	n/a	n/a	n/a
1943.968	0.0	nontarget	4	1943968	ä	0	24.0	n/a	n/a	8
1945.951	0.0	nontarget	4	1945951	h	0	16.0	n/a	n/a	8
1948.451	0.0	target	5	1948451	v	1	47.0	1	0.4960879	8
1948.835	0.5	BAD keypress	1	1948835	n/a	n/a	n/a	n/a	n/a	n/a
1949.085	0.0	keypress	3	1949085	n/a	n/a	n/a	n/a	n/a	n/a
1950.435	0.0	target	5	1950435	ä	1	22.0	1	0.4167432	8
1950.718	0.5	BAD keypress	1	1950718	n/a	n/a	n/a	n/a	n/a	n/a
1950.968	0.0	keypress	3	1950968	n/a	n/a	n/a	n/a	n/a	n/a
1952.268	0.0	nontarget	4	1952268	v	0	19.0	n/a	n/a	8
1954.668	0.0	nontarget	4	1954668	ä	0	41.0	n/a	n/a	8
1956.801	0.0	target	5	1956801	f	1	25.0	1	0.4339749	8
1957.101	0.5	BAD keypress	1	1957101	n/a	n/a	n/a	n/a	n/a	n/a
1957.351	0.0	keypress	3	1957351	n/a	n/a	n/a	n/a	n/a	n/a
1959.018	0.0	nontarget	4	1959018	f	0	41.0	n/a	n/a	8
1961.234	0.0	nontarget	4	1961234	b	0	30.0	n/a	n/a	8
1963.484	0.0	nontarget	4	1963484	d	0	32.0	n/a	n/a	8
1965.951	0.0	nontarget	4	1965951	w	0	45.0	n/a	n/a	8
1967.934	0.0	nontarget	4	1967934	m	0	16.0	n/a	n/a	8
1970.15	0.0	nontarget	4	1970150	n	0	30.0	n/a	n/a	8
1972.184	0.0	target	5	1972184	w	1	19.0	1	0.4741545	8
1972.534	0.5	BAD keypress	1	1972534	n/a	n/a	n/a	n/a	n/a	n/a
1972.784	0.0	keypress	3	1972784	n/a	n/a	n/a	n/a	n/a	n/a
1974.45	0.0	nontarget	4	1974450	ß	0	40.0	n/a	n/a	8
1976.7	0.0	nontarget	4	1976700	ä	0	32.0	n/a	n/a	8
1978.8	0.0	target	5	1978800	p	1	23.0	1	0.4493475	8
1979.133	0.5	BAD keypress	1	1979133	n/a	n/a	n/a	n/a	n/a	n/a
1979.383	0.0	keypress	3	1979383	n/a	n/a	n/a	n/a	n/a	n/a
1981.0	0.0	nontarget	4	1981000	a	0	37.0	n/a	n/a	8
1983.233	0.0	target	5	1983233	ä	1	31.0	1	0.4158209	8
1983.533	0.5	BAD keypress	1	1983533	n/a	n/a	n/a	n/a	n/a	n/a
1983.783	0.0	keypress	3	1983783	n/a	n/a	n/a	n/a	n/a	n/a
1985.1	0.0	nontarget	4	1985100	d	0	20.0	n/a	n/a	8
1987.1	0.0	nontarget	4	1987100	e	0	17.0	n/a	n/a	8
1989.15	0.0	nontarget	4	1989150	s	0	20.0	n/a	n/a	8
1991.483	0.0	nontarget	4	1991483	f	0	37.0	n/a	n/a	8
1993.583	0.0	nontarget	4	1993583	x	0	23.0	n/a	n/a	8
1995.949	0.0	nontarget	4	1995949	ü	0	39.0	n/a	n/a	8
1998.349	0.0	nontarget	4	1998349	s	0	41.0	n/a	n/a	8
1999.449	13.833000000000084	BAD_break	2	1999449	n/a	n/a	n/a	n/a	n/a	n/a
2013.782	0.0	nontarget	4	2013782	k	0	27.0	n/a	n/a	9
2015.732	0.0	target	5	2015732	o	1	14.0	1	0.5070979	9
2016.132	0.5	BAD keypress	1	2016132	n/a	n/a	n/a	n/a	n/a	n/a
2016.382	0.0	keypress	3	2016382	n/a	n/a	n/a	n/a	n/a	n/a
2017.898	0.0	nontarget	4	2017898	w	0	31.0	n/a	n/a	9
2020.232	0.0	nontarget	4	2020232	e	0	37.0	n/a	n/a	9
2022.781	0.0	target	5	2022781	h	1	50.0	1	0.4489576	9
2023.098	0.5	BAD keypress	1	2023098	n/a	n/a	n/a	n/a	n/a	n/a
2023.348	0.0	keypress	3	2023348	n/a	n/a	n/a	n/a	n/a	n/a
2024.715	0.0	nontarget	4	2024715	c	0	22.0	n/a	n/a	9
2026.848	0.0	nontarget	4	2026848	m	0	25.0	n/a	n/a	9
2029.031	0.0	nontarget	4	2029031	r	0	28.0	n/a	n/a	9
2031.198	0.0	nontarget	4	2031198	w	0	27.0	n/a	n/a	9
2033.714	0.0	nontarget	4	2033714	g	0	48.0	n/a	n/a	9
2035.831	0.0	nontarget	4	2035831	o	0	24.0	n/a	n/a	9
2037.997	0.0	nontarget	4	2037997	s	0	27.0	n/a	n/a	9
2040.081	0.0	nontarget	4	2040081	x	0	22.0	n/a	n/a	9
2042.181	0.0	nontarget	4	2042181	ß	0	23.0	n/a	n/a	9
2044.631	0.0	nontarget	4	2044631	i	0	44.0	n/a	n/a	9
2047.064	0.0	nontarget	4	2047064	c	0	43.0	n/a	n/a	9
2049.547	0.0	nontarget	4	2049547	h	0	46.0	n/a	n/a	9
2051.964	0.0	nontarget	4	2051964	r	0	42.0	n/a	n/a	9
2054.013	0.0	nontarget	4	2054013	a	0	20.0	n/a	n/a	9
2056.13	0.0	nontarget	4	2056130	m	0	24.0	n/a	n/a	9
2058.613	0.0	nontarget	4	2058613	ö	0	46.0	n/a	n/a	9
2060.696	0.0	nontarget	4	2060696	e	0	22.0	n/a	n/a	9
2062.846	0.0	nontarget	4	2062846	s	0	26.0	n/a	n/a	9
2064.846	0.0	nontarget	4	2064846	ü	0	17.0	n/a	n/a	9
2067.296	0.0	target	5	2067296	c	1	44.0	1	0.4912569	9
2067.663	0.5	BAD keypress	1	2067663	n/a	n/a	n/a	n/a	n/a	n/a
2067.913	0.0	keypress	3	2067913	n/a	n/a	n/a	n/a	n/a	n/a
2069.513	0.0	nontarget	4	2069513	x	0	37.0	n/a	n/a	9
2071.863	0.0	nontarget	4	2071863	q	0	38.0	n/a	n/a	9
2074.129	0.0	nontarget	4	2074129	ß	0	33.0	n/a	n/a	9
2076.296	0.0	nontarget	4	2076296	k	0	27.0	n/a	n/a	9
2078.496	0.0	target	5	2078496	v	1	29.0	1	0.4589411	9
2078.829	0.5	BAD keypress	1	2078829	n/a	n/a	n/a	n/a	n/a	n/a
2079.079	0.0	keypress	3	2079079	n/a	n/a	n/a	n/a	n/a	n/a
2080.812	0.0	nontarget	4	2080812	l	0	44.0	n/a	n/a	9
2083.179	0.0	nontarget	4	2083179	g	0	39.0	n/a	n/a	9
2085.479	0.0	nontarget	4	2085479	m	0	35.0	n/a	n/a	9
2087.729	0.0	nontarget	4	2087729	ß	0	32.0	n/a	n/a	9
2090.112	0.0	target	5	2090112	s	1	40.0	1	0.4420899	9
2090.445	0.5	BAD keypress	1	2090445	n/a	n/a	n/a	n/a	n/a	n/a
2090.695	0.0	keypress	3	2090695	n/a	n/a	n/a	n/a	n/a	n/a
2092.478	0.0	nontarget	4	2092478	e	0	48.0	n/a	n/a	9
2094.728	0.0	nontarget	4	2094728	o	0	32.0	n/a	n/a	9
2097.162	0.0	nontarget	4	2097162	s	0	43.0	n/a	n/a	9
2099.311	0.0	nontarget	4	2099311	l	0	26.0	n/a	n/a	9
2101.861	0.0	nontarget	4	2101861	ö	0	50.0	n/a	n/a	9
2103.878	0.0	target	5	2103878	o	1	18.0	1	0.4990894	9
2104.228	0.5	BAD keypress	1	2104228	n/a	n/a	n/a	n/a	n/a	n/a
2104.478	0.0	keypress	3	2104478	n/a	n/a	n/a	n/a	n/a	n/a
2106.211	0.0	nontarget	4	2106211	m	0	45.0	n/a	n/a	9
2108.578	0.0	nontarget	4	2108578	p	0	39.0	n/a	n/a	9
2110.794	0.0	target	5	2110794	q	1	30.0	1	0.4941403	9
2111.161	0.5	BAD keypress	1	2111161	n/a	n/a	n/a	n/a	n/a	n/a
2111.411	0.0	keypress	3	2111411	n/a	n/a	n/a	n/a	n/a	n/a
2112.978	0.0	nontarget	4	2112978	v	0	35.0	n/a	n/a	9
2115.427	0.0	nontarget	4	2115427	ä	0	44.0	n/a	n/a	9
2117.577	0.0	nontarget	4	2117577	j	0	26.0	n/a	n/a	9
2119.577	0.0	nontarget	4	2119577	e	0	17.0	n/a	n/a	9
2122.077	0.0	nontarget	4	2122077	t	0	47.0	n/a	n/a	9
2124.577	0.0	nontarget	4	2124577	k	0	47.0	n/a	n/a	9
2126.877	0.0	nontarget	4	2126877	ü	0	35.0	n/a	n/a	9
2129.36	0.0	target	5	2129360	w	1	46.0	1	0.4550174	9
2129.677	0.5	BAD keypress	1	2129677	n/a	n/a	n/a	n/a	n/a	n/a
2129.927	0.0	keypress	3	2129927	n/a	n/a	n/a	n/a	n/a	n/a
2131.527	0.0	target	5	2131527	l	1	37.0	1	0.4963707	9
2131.877	0.5	BAD keypress	1	2131877	n/a	n/a	n/a	n/a	n/a	n/a
2132.127	0.0	keypress	3	2132127	n/a	n/a	n/a	n/a	n/a	n/a
2133.577	0.0	nontarget	4	2133577	w	0	28.0	n/a	n/a	9
2135.827	0.0	nontarget	4	2135827	u	0	32.0	n/a	n/a	9
2137.943	0.0	nontarget	4	2137943	t	0	24.0	n/a	n/a	9
2139.91	0.0	nontarget	4	2139910	p	0	15.0	n/a	n/a	9
2142.026	0.0	target	5	2142026	y	1	24.0	1	0.4600643	9
2142.36	0.5	BAD keypress	1	2142360	n/a	n/a	n/a	n/a	n/a	n/a
2142.61	0.0	keypress	3	2142610	n/a	n/a	n/a	n/a	n/a	n/a
2144.393	0.0	target	5	2144393	p	1	48.0	1	0.429323	9
2144.693	0.5	BAD keypress	1	2144693	n/a	n/a	n/a	n/a	n/a	n/a
2144.943	0.0	keypress	3	2144943	n/a	n/a	n/a	n/a	n/a	n/a
2146.493	0.0	nontarget	4	2146493	q	0	34.0	n/a	n/a	9
2148.693	0.0	nontarget	4	2148693	u	0	29.0	n/a	n/a	9
2151.126	0.0	target	5	2151126	h	1	43.0	1	0.4318368	9
2151.426	0.5	BAD keypress	1	2151426	n/a	n/a	n/a	n/a	n/a	n/a
2151.676	0.0	keypress	3	2151676	n/a	n/a	n/a	n/a	n/a	n/a
2153.476	0.0	nontarget	4	2153476	m	0	49.0	n/a	n/a	9
2156.009	0.0	nontarget	4	2156009	p	0	49.0	n/a	n/a	9
2158.459	0.0	nontarget	4	2158459	u	0	44.0	n/a	n/a	9
2160.892	0.0	nontarget	4	2160892	k	0	43.0	n/a	n/a	9
2161.992	30.84900000000016	BAD_break	2	2161992	n/a	n/a	n/a	n/a	n/a	n/a
2193.341	0.0	nontarget	4	2193341	v	0	48.0	n/a	n/a	10
2195.507	0.0	nontarget	4	2195507	s	0	27.0	n/a	n/a	10
2197.99	0.0	target	5	2197990	e	1	46.0	1	0.4760478	10
2198.374	0.5	BAD keypress	1	2198374	n/a	n/a	n/a	n/a	n/a	n/a
2198.624	0.0	keypress	3	2198624	n/a	n/a	n/a	n/a	n/a	n/a
2200.007	0.0	nontarget	4	2200007	l	0	23.0	n/a	n/a	10
2202.507	0.0	nontarget	4	2202507	j	0	47.0	n/a	n/a	10
2204.674	0.0	nontarget	4	2204674	q	0	27.0	n/a	n/a	10
2207.073	0.0	nontarget	4	2207073	d	0	41.0	n/a	n/a	10
2209.423	0.0	nontarget	4	2209423	g	0	38.0	n/a	n/a	10
2211.923	0.0	nontarget	4	2211923	h	0	47.0	n/a	n/a	10
2214.106	0.0	target	5	2214106	g	1	28.0	1	0.5030107	10
2214.457	0.5	BAD keypress	1	2214457	n/a	n/a	n/a	n/a	n/a	n/a
2214.707	0.0	keypress	3	2214707	n/a	n/a	n/a	n/a	n/a	n/a
2216.34	0.0	nontarget	4	2216340	n	0	38.0	n/a	n/a	10
2218.49	0.0	nontarget	4	2218490	z	0	26.0	n/a	n/a	10
2220.889	0.0	nontarget	4	2220889	l	0	41.0	n/a	n/a	10
2222.856	0.0	nontarget	4	2222856	c	0	15.0	n/a	n/a	10
2225.039	0.0	nontarget	4	2225039	n	0	28.0	n/a	n/a	10
2227.139	0.0	target	5	2227139	r	1	23.0	1	0.4773777	10
2227.473	0.5	BAD keypress	1	2227473	n/a	n/a	n/a	n/a	n/a	n/a
2227.723	0.0	keypress	3	2227723	n/a	n/a	n/a	n/a	n/a	n/a
2229.106	0.0	nontarget	4	2229106	u	0	24.0	n/a	n/a	10
2231.656	0.0	nontarget	4	2231656	ö	0	50.0	n/a	n/a	10
2233.739	0.0	nontarget	4	2233739	j	0	22.0	n/a	n/a	10
2236.105	0.0	nontarget	4	2236105	k	0	39.0	n/a	n/a	10
2238.139	0.0	nontarget	4	2238139	ü	0	19.0	n/a	n/a	10
2240.572	0.0	nontarget	4	2240572	n	0	43.0	n/a	n/a	10
2243.122	0.0	nontarget	4	2243122	h	0	50.0	n/a	n/a	10
2245.472	0.0	target	5	2245472	m	1	38.0	1	0.4795574	10
2245.838	0.5	BAD keypress	1	2245838	n/a	n/a	n/a	n/a	n/a	n/a
2246.088	0.0	keypress	3	2246088	n/a	n/a	n/a	n/a	n/a	n/a
2247.338	0.0	nontarget	4	2247338	d	0	16.0	n/a	n/a	10
2249.788	0.0	nontarget	4	2249788	i	0	44.0	n/a	n/a	10
2252.188	0.0	target	5	2252188	ü	1	41.0	1	0.4347693	10
2252.472	0.5	BAD keypress	1	2252472	n/a	n/a	n/a	n/a	n/a	n/a
2252.722	0.0	keypress	3	2252722	n/a	n/a	n/a	n/a	n/a	n/a
2254.288	0.0	nontarget	4	2254288	r	0	35.0	n/a	n/a	10
2256.721	0.0	nontarget	4	2256721	q	0	43.0	n/a	n/a	10
2259.054	0.0	nontarget	4	2259054	y	0	37.0	n/a	n/a	10
2261.204	0.0	nontarget	4	2261204	c	0	26.0	n/a	n/a	10
2263.754	0.0	target	5	2263754	b	1	50.0	1	0.451774	10
2264.054	0.5	BAD keypress	1	2264054	n/a	n/a	n/a	n/a	n/a	n/a
2264.304	0.0	keypress	3	2264304	n/a	n/a	n/a	n/a	n/a	n/a
2265.788	0.0	target	5	2265788	d	1	30.0	1	0.4825315	10
2266.138	0.5	BAD keypress	1	2266138	n/a	n/a	n/a	n/a	n/a	n/a
2266.388	0.0	keypress	3	2266388	n/a	n/a	n/a	n/a	n/a	n/a
2267.854	0.0	nontarget	4	2267854	m	0	28.0	n/a	n/a	10
2270.071	0.0	target	5	2270071	w	1	30.0	1	0.487085	10
2270.421	0.5	BAD keypress	1	2270421	n/a	n/a	n/a	n/a	n/a	n/a
2270.671	0.0	keypress	3	2270671	n/a	n/a	n/a	n/a	n/a	n/a
2271.954	0.0	nontarget	4	2271954	j	0	18.0	n/a	n/a	10
2274.27	0.0	nontarget	4	2274270	q	0	36.0	n/a	n/a	10
2276.42	0.0	nontarget	4	2276420	t	0	26.0	n/a	n/a	10
2278.737	0.0	target	5	2278737	x	1	36.0	1	0.4441299	10
2279.087	0.5	BAD keypress	1	2279087	n/a	n/a	n/a	n/a	n/a	n/a
2279.337	0.0	keypress	3	2279337	n/a	n/a	n/a	n/a	n/a	n/a
2280.954	0.0	nontarget	4	2280954	f	0	37.0	n/a	n/a	10
2283.437	0.0	nontarget	4	2283437	h	0	46.0	n/a	n/a	10
2285.537	0.0	nontarget	4	2285537	b	0	23.0	n/a	n/a	10
2288.003	0.0	nontarget	4	2288003	i	0	45.0	n/a	n/a	10
2290.536	0.0	nontarget	4	2290536	o	0	49.0	n/a	n/a	10
2293.053	0.0	nontarget	4	2293053	h	0	48.0	n/a	n/a	10
2295.353	0.0	nontarget	4	2295353	n	0	35.0	n/a	n/a	10
2297.803	0.0	nontarget	4	2297803	e	0	44.0	n/a	n/a	10
2300.219	0.0	nontarget	4	2300219	b	0	42.0	n/a	n/a	10
2302.419	0.0	nontarget	4	2302419	c	0	29.0	n/a	n/a	10
2304.536	0.0	nontarget	4	2304536	z	0	24.0	n/a	n/a	10
2306.836	0.0	nontarget	4	2306836	m	0	35.0	n/a	n/a	10
2309.269	0.0	target	5	2309269	m	1	43.0	1	0.4380502	10
2309.569	0.5	BAD keypress	1	2309569	n/a	n/a	n/a	n/a	n/a	n/a
2309.819	0.0	keypress	3	2309819	n/a	n/a	n/a	n/a	n/a	n/a
2311.269	0.0	nontarget	4	2311269	j	0	28.0	n/a	n/a	10
2313.352	0.0	nontarget	4	2313352	ö	0	22.0	n/a	n/a	10
2315.552	0.0	nontarget	4	2315552	l	0	29.0	n/a	n/a	10
2317.585	0.0	nontarget	4	2317585	g	0	19.0	n/a	n/a	10
2320.002	0.0	nontarget	4	2320002	a	0	42.0	n/a	n/a	10
2322.018	0.0	nontarget	4	2322018	j	0	18.0	n/a	n/a	10
2324.085	0.0	nontarget	4	2324085	ä	0	21.0	n/a	n/a	10
2326.118	0.0	nontarget	4	2326118	m	0	19.0	n/a	n/a	10
2328.551	0.0	target	5	2328551	y	1	43.0	1	0.4662677	10
2328.885	0.5	BAD keypress	1	2328885	n/a	n/a	n/a	n/a	n/a	n/a
2329.135	0.0	keypress	3	2329135	n/a	n/a	n/a	n/a	n/a	n/a
2330.951	0.0	nontarget	4	2330951	b	0	50.0	n/a	n/a	10
2333.235	0.0	nontarget	4	2333235	a	0	34.0	n/a	n/a	10
2335.634	0.0	nontarget	4	2335634	h	0	41.0	n/a	n/a	10
2337.634	0.0	nontarget	4	2337634	j	0	17.0	n/a	n/a	10
2339.584	0.0	nontarget	4	2339584	ü	0	14.0	n/a	n/a	10
2340.684	23.583000000000084	BAD_break	2	2340684	n/a	n/a	n/a	n/a	n/a	n/a
2364.767	0.0	nontarget	4	2364767	u	0	20.0	n/a	n/a	11
2366.85	0.0	nontarget	4	2366850	c	0	22.0	n/a	n/a	11
2369.133	0.0	nontarget	4	2369133	ö	0	34.0	n/a	n/a	11
2371.566	0.0	target	5	2371566	q	1	43.0	1	0.4565348	11
2371.883	0.5	BAD keypress	1	2371883	n/a	n/a	n/a	n/a	n/a	n/a
2372.133	0.0	keypress	3	2372133	n/a	n/a	n/a	n/a	n/a	n/a
2373.933	0.0	nontarget	4	2373933	l	0	48.0	n/a	n/a	11
2376.083	0.0	nontarget	4	2376083	ä	0	26.0	n/a	n/a	11
2378.433	0.0	nontarget	4	2378433	d	0	38.0	n/a	n/a	11
2380.932	0.0	nontarget	4	2380932	v	0	47.0	n/a	n/a	11
2383.299	0.0	nontarget	4	2383299	e	0	39.0	n/a	n/a	11
2385.366	0.0	nontarget	4	2385366	z	0	21.0	n/a	n/a	11
2387.866	0.0	nontarget	4	2387866	i	0	47.0	n/a	n/a	11
2389.915	0.0	nontarget	4	2389915	s	0	20.0	n/a	n/a	11
2392.432	0.0	target	5	2392432	r	1	48.0	1	0.5333186	11
2392.915	0.5	BAD keypress	1	2392915	n/a	n/a	n/a	n/a	n/a	n/a
2393.165	0.0	keypress	3	2393165	n/a	n/a	n/a	n/a	n/a	n/a
2393.432	0.5	BAD keypress	1	2393432	n/a	n/a	n/a	n/a	n/a	n/a
2393.682	0.0	keypress	3	2393682	n/a	n/a	n/a	n/a	n/a	n/a
2394.865	0.0	nontarget	4	2394865	h	0	42.0	n/a	n/a	11
2397.082	0.0	nontarget	4	2397082	ß	0	30.0	n/a	n/a	11
2399.365	0.0	nontarget	4	2399365	f	0	34.0	n/a	n/a	11
2401.398	0.0	nontarget	4	2401398	t	0	19.0	n/a	n/a	11
2403.598	0.0	nontarget	4	2403598	z	0	29.0	n/a	n/a	11
2406.131	0.0	nontarget	4	2406131	k	0	49.0	n/a	n/a	11
2408.315	0.0	nontarget	4	2408315	l	0	28.0	n/a	n/a	11
2410.465	0.0	nontarget	4	2410465	d	0	26.0	n/a	n/a	11
2412.698	0.0	nontarget	4	2412698	u	0	31.0	n/a	n/a	11
2414.798	0.0	nontarget	4	2414798	o	0	23.0	n/a	n/a	11
2417.214	0.0	target	5	2417214	u	1	42.0	1	0.4694285	11
2417.548	0.5	BAD keypress	1	2417548	n/a	n/a	n/a	n/a	n/a	n/a
2417.798	0.0	keypress	3	2417798	n/a	n/a	n/a	n/a	n/a	n/a
2419.331	0.0	nontarget	4	2419331	ü	0	32.0	n/a	n/a	11
2421.714	0.0	target	5	2421714	m	1	40.0	1	0.4173943	11
2422.014	0.5	BAD keypress	1	2422014	n/a	n/a	n/a	n/a	n/a	n/a
2422.264	0.0	keypress	3	2422264	n/a	n/a	n/a	n/a	n/a	n/a
2424.014	0.0	nontarget	4	2424014	i	0	46.0	n/a	n/a	11
2426.231	0.0	nontarget	4	2426231	e	0	30.0	n/a	n/a	11
2428.397	0.0	nontarget	4	2428397	g	0	27.0	n/a	n/a	11
2430.714	0.0	nontarget	4	2430714	j	0	36.0	n/a	n/a	11
2432.914	0.0	nontarget	4	2432914	ü	0	29.0	n/a	n/a	11
2434.897	0.0	nontarget	4	2434897	p	0	16.0	n/a	n/a	11
2437.247	0.0	nontarget	4	2437247	s	0	38.0	n/a	n/a	11
2439.613	0.0	nontarget	4	2439613	x	0	39.0	n/a	n/a	11
2441.663	0.0	nontarget	4	2441663	ß	0	20.0	n/a	n/a	11
2443.98	0.0	nontarget	4	2443980	e	0	36.0	n/a	n/a	11
2445.963	0.0	nontarget	4	2445963	m	0	16.0	n/a	n/a	11
2448.08	0.0	nontarget	4	2448080	r	0	24.0	n/a	n/a	11
2450.246	0.0	target	5	2450246	d	1	27.0	1	0.4272894	11
2450.58	0.5	BAD keypress	1	2450580	n/a	n/a	n/a	n/a	n/a	n/a
2450.83	0.0	keypress	3	2450830	n/a	n/a	n/a	n/a	n/a	n/a
2452.213	0.0	nontarget	4	2452213	o	0	24.0	n/a	n/a	11
2454.563	0.0	target	5	2454563	z	1	38.0	1	0.4626449	11
2454.896	0.5	BAD keypress	1	2454896	n/a	n/a	n/a	n/a	n/a	n/a
2455.146	0.0	keypress	3	2455146	n/a	n/a	n/a	n/a	n/a	n/a
2456.596	0.0	nontarget	4	2456596	r	0	28.0	n/a	n/a	11
2458.862	0.0	nontarget	4	2458862	g	0	33.0	n/a	n/a	11
2460.829	0.0	nontarget	4	2460829	z	0	15.0	n/a	n/a	11
2463.312	0.0	nontarget	4	2463312	s	0	46.0	n/a	n/a	11
2465.479	0.0	nontarget	4	2465479	ß	0	27.0	n/a	n/a	11
2467.745	0.0	nontarget	4	2467745	c	0	33.0	n/a	n/a	11
2470.179	0.0	nontarget	4	2470179	o	0	43.0	n/a	n/a	11
2472.228	0.0	nontarget	4	2472228	t	0	20.0	n/a	n/a	11
2474.245	0.0	target	5	2474245	b	1	18.0	1	0.5068371	11
2474.612	0.5	BAD keypress	1	2474612	n/a	n/a	n/a	n/a	n/a	n/a
2474.862	0.0	keypress	3	2474862	n/a	n/a	n/a	n/a	n/a	n/a
2476.478	0.0	nontarget	4	2476478	j	0	38.0	n/a	n/a	11
2478.562	0.0	target	5	2478562	ä	1	22.0	1	0.462034	11
2478.912	0.5	BAD keypress	1	2478912	n/a	n/a	n/a	n/a	n/a	n/a
2479.162	0.0	keypress	3	2479162	n/a	n/a	n/a	n/a	n/a	n/a
2480.828	0.0	target	5	2480828	j	1	41.0	1	0.4674223	11
2481.195	0.5	BAD keypress	1	2481195	n/a	n/a	n/a	n/a	n/a	n/a
2481.445	0.0	keypress	3	2481445	n/a	n/a	n/a	n/a	n/a	n/a
2483.211	0.0	nontarget	4	2483211	m	0	47.0	n/a	n/a	11
2485.278	0.0	nontarget	4	2485278	a	0	21.0	n/a	n/a	11
2487.261	0.0	nontarget	4	2487261	w	0	16.0	n/a	n/a	11
2489.494	0.0	nontarget	4	2489494	n	0	31.0	n/a	n/a	11
2491.711	0.0	nontarget	4	2491711	ß	0	30.0	n/a	n/a	11
2493.844	0.0	nontarget	4	2493844	a	0	25.0	n/a	n/a	11
2495.961	0.0	nontarget	4	2495961	w	0	24.0	n/a	n/a	11
2498.444	0.0	nontarget	4	2498444	z	0	46.0	n/a	n/a	11
2500.927	0.0	nontarget	4	2500927	l	0	46.0	n/a	n/a	11
2503.427	0.0	nontarget	4	2503427	f	0	47.0	n/a	n/a	11
2505.694	0.0	target	5	2505694	n	1	33.0	1	0.5119746	11
2506.11	0.5	BAD keypress	1	2506110	n/a	n/a	n/a	n/a	n/a	n/a
2506.36	0.0	keypress	3	2506360	n/a	n/a	n/a	n/a	n/a	n/a
2508.027	0.0	nontarget	4	2508027	g	0	41.0	n/a	n/a	11
2510.294	0.0	nontarget	4	2510294	t	0	33.0	n/a	n/a	11
2511.394	33.68100000000004	BAD_break	2	2511394	n/a	n/a	n/a	n/a	n/a	n/a
2545.575	0.0	nontarget	4	2545575	e	0	25.0	n/a	n/a	12
2548.025	0.0	nontarget	4	2548025	v	0	44.0	n/a	n/a	12
2550.092	0.0	nontarget	4	2550092	x	0	21.0	n/a	n/a	12
2552.442	0.0	target	5	2552442	w	1	38.0	1	0.4329199	12
2552.775	0.5	BAD keypress	1	2552775	n/a	n/a	n/a	n/a	n/a	n/a
2553.025	0.0	keypress	3	2553025	n/a	n/a	n/a	n/a	n/a	n/a
2554.792	0.0	target	5	2554792	e	1	46.0	1	0.4028951	12
2555.042	0.5	BAD keypress	1	2555042	n/a	n/a	n/a	n/a	n/a	n/a
2555.292	0.0	keypress	3	2555292	n/a	n/a	n/a	n/a	n/a	n/a
2556.941	0.0	nontarget	4	2556941	e	0	40.0	n/a	n/a	12
2559.191	0.0	nontarget	4	2559191	i	0	32.0	n/a	n/a	12
2561.308	0.0	nontarget	4	2561308	m	0	24.0	n/a	n/a	12
2563.525	0.0	nontarget	4	2563525	r	0	30.0	n/a	n/a	12
2565.491	0.0	nontarget	4	2565491	x	0	15.0	n/a	n/a	12
2567.908	0.0	target	5	2567908	ü	1	42.0	1	0.5178861	12
2568.341	0.5	BAD keypress	1	2568341	n/a	n/a	n/a	n/a	n/a	n/a
2568.591	0.0	keypress	3	2568591	n/a	n/a	n/a	n/a	n/a	n/a
2570.008	0.0	nontarget	4	2570008	ä	0	25.0	n/a	n/a	12
2572.374	0.0	target	5	2572374	k	1	39.0	1	0.419159	12
2572.674	0.5	BAD keypress	1	2572674	n/a	n/a	n/a	n/a	n/a	n/a
2572.924	0.0	keypress	3	2572924	n/a	n/a	n/a	n/a	n/a	n/a
2574.174	0.0	nontarget	4	2574174	c	0	15.0	n/a	n/a	12
2576.207	0.0	nontarget	4	2576207	e	0	19.0	n/a	n/a	12
2578.207	0.0	target	5	2578207	v	1	17.0	1	0.4575991	12
2578.557	0.5	BAD keypress	1	2578557	n/a	n/a	n/a	n/a	n/a	n/a
2578.807	0.0	keypress	3	2578807	n/a	n/a	n/a	n/a	n/a	n/a
2580.474	0.0	target	5	2580474	w	1	41.0	1	0.4468205	12
2580.791	0.5	BAD keypress	1	2580791	n/a	n/a	n/a	n/a	n/a	n/a
2581.041	0.0	keypress	3	2581041	n/a	n/a	n/a	n/a	n/a	n/a
2582.424	0.0	nontarget	4	2582424	r	0	24.0	n/a	n/a	12
2584.807	0.0	nontarget	4	2584807	c	0	40.0	n/a	n/a	12
2587.307	0.0	nontarget	4	2587307	u	0	47.0	n/a	n/a	12
2589.69	0.0	target	5	2589690	q	1	40.0	1	0.4460097	12
2590.007	0.5	BAD keypress	1	2590007	n/a	n/a	n/a	n/a	n/a	n/a
2590.257	0.0	keypress	3	2590257	n/a	n/a	n/a	n/a	n/a	n/a
2591.957	0.0	nontarget	4	2591957	ß	0	43.0	n/a	n/a	12
2593.923	0.0	nontarget	4	2593923	ö	0	15.0	n/a	n/a	12
2595.94	0.0	nontarget	4	2595940	l	0	18.0	n/a	n/a	12
2598.04	0.0	nontarget	4	2598040	b	0	23.0	n/a	n/a	12
2600.44	0.0	nontarget	4	2600440	g	0	41.0	n/a	n/a	12
2602.39	0.0	nontarget	4	2602390	w	0	14.0	n/a	n/a	12
2604.356	0.0	nontarget	4	2604356	m	0	15.0	n/a	n/a	12
2606.439	0.0	nontarget	4	2606439	ü	0	22.0	n/a	n/a	12
2608.873	0.0	nontarget	4	2608873	s	0	43.0	n/a	n/a	12
2611.106	0.0	target	5	2611106	p	1	31.0	1	0.4527668	12
2611.456	0.5	BAD keypress	1	2611456	n/a	n/a	n/a	n/a	n/a	n/a
2611.706	0.0	keypress	3	2611706	n/a	n/a	n/a	n/a	n/a	n/a
2613.372	0.0	nontarget	4	2613372	b	0	41.0	n/a	n/a	12
2615.522	0.0	nontarget	4	2615522	g	0	26.0	n/a	n/a	12
2617.755	0.0	nontarget	4	2617755	ä	0	31.0	n/a	n/a	12
2620.055	0.0	nontarget	4	2620055	i	0	35.0	n/a	n/a	12
2622.339	0.0	nontarget	4	2622339	t	0	34.0	n/a	n/a	12
2624.555	0.0	nontarget	4	2624555	r	0	30.0	n/a	n/a	12
2627.022	0.0	nontarget	4	2627022	a	0	45.0	n/a	n/a	12
2629.238	0.0	nontarget	4	2629238	b	0	30.0	n/a	n/a	12
2631.322	0.0	nontarget	4	2631322	w	0	22.0	n/a	n/a	12
2633.455	0.0	nontarget	4	2633455	h	0	25.0	n/a	n/a	12
2635.605	0.0	target	5	2635605	s	1	26.0	1	0.432168	12
2635.921	0.5	BAD keypress	1	2635921	n/a	n/a	n/a	n/a	n/a	n/a
2636.171	0.0	keypress	3	2636171	n/a	n/a	n/a	n/a	n/a	n/a
2637.505	0.0	target	5	2637505	j	1	20.0	1	0.5002469	12
2637.888	0.5	BAD keypress	1	2637888	n/a	n/a	n/a	n/a	n/a	n/a
2638.138	0.0	keypress	3	2638138	n/a	n/a	n/a	n/a	n/a	n/a
2639.638	0.0	nontarget	4	2639638	ü	0	31.0	n/a	n/a	12
2642.138	0.0	nontarget	4	2642138	o	0	47.0	n/a	n/a	12
2644.221	0.0	nontarget	4	2644221	e	0	22.0	n/a	n/a	12
2646.588	0.0	nontarget	4	2646588	x	0	39.0	n/a	n/a	12
2648.704	0.0	nontarget	4	2648704	s	0	24.0	n/a	n/a	12
2651.054	0.0	nontarget	4	2651054	b	0	38.0	n/a	n/a	12
2653.354	0.0	nontarget	4	2653354	l	0	35.0	n/a	n/a	12
2655.404	0.0	nontarget	4	2655404	x	0	20.0	n/a	n/a	12
2657.854	0.0	nontarget	4	2657854	w	0	44.0	n/a	n/a	12
2660.22	0.0	nontarget	4	2660220	d	0	39.0	n/a	n/a	12
2662.504	0.0	nontarget	4	2662504	l	0	34.0	n/a	n/a	12
2664.753	0.0	nontarget	4	2664753	t	0	32.0	n/a	n/a	12
2666.937	0.0	target	5	2666937	n	1	28.0	1	0.4901585	12
2667.337	0.5	BAD keypress	1	2667337	n/a	n/a	n/a	n/a	n/a	n/a
2667.587	0.0	keypress	3	2667587	n/a	n/a	n/a	n/a	n/a	n/a
2669.103	0.0	nontarget	4	2669103	e	0	32.0	n/a	n/a	12
2671.387	0.0	nontarget	4	2671387	y	0	34.0	n/a	n/a	12
2673.42	0.0	nontarget	4	2673420	l	0	19.0	n/a	n/a	12
2675.836	0.0	nontarget	4	2675836	z	0	42.0	n/a	n/a	12
2678.153	0.0	target	5	2678153	r	1	36.0	1	0.4891907	12
2678.52	0.5	BAD keypress	1	2678520	n/a	n/a	n/a	n/a	n/a	n/a
2678.77	0.0	keypress	3	2678770	n/a	n/a	n/a	n/a	n/a	n/a
2680.486	0.0	nontarget	4	2680486	ä	0	44.0	n/a	n/a	12
2682.769	0.0	nontarget	4	2682769	y	0	34.0	n/a	n/a	12
2684.869	0.0	target	5	2684869	a	1	23.0	1	0.444399	12
2685.169	0.5	BAD keypress	1	2685169	n/a	n/a	n/a	n/a	n/a	n/a
2685.419	0.0	keypress	3	2685419	n/a	n/a	n/a	n/a	n/a	n/a
2686.852	0.0	nontarget	4	2686852	p	0	26.0	n/a	n/a	12
2689.136	0.0	nontarget	4	2689136	j	0	34.0	n/a	n/a	12
2690.236	20.399000000000346	BAD_break	2	2690236	n/a	n/a	n/a	n/a	n/a	n/a
2711.135	0.0	nontarget	4	2711135	q	0	34.0	n/a	n/a	13
2713.618	0.0	nontarget	4	2713618	z	0	46.0	n/a	n/a	13
2715.818	0.0	nontarget	4	2715818	ä	0	29.0	n/a	n/a	13
2717.951	0.0	nontarget	4	2717951	ß	0	25.0	n/a	n/a	13
2720.368	0.0	nontarget	4	2720368	u	0	42.0	n/a	n/a	13
2722.318	0.0	nontarget	4	2722318	k	0	14.0	n/a	n/a	13
2724.868	0.0	target	5	2724868	k	1	50.0	1	0.4433778	13
2725.184	0.5	BAD keypress	1	2725184	n/a	n/a	n/a	n/a	n/a	n/a
2725.434	0.0	keypress	3	2725434	n/a	n/a	n/a	n/a	n/a	n/a
2726.901	0.0	nontarget	4	2726901	q	0	29.0	n/a	n/a	13
2729.251	0.0	target	5	2729251	a	1	38.0	1	0.4280302	13
2729.567	0.5	BAD keypress	1	2729567	n/a	n/a	n/a	n/a	n/a	n/a
2729.817	0.0	keypress	3	2729817	n/a	n/a	n/a	n/a	n/a	n/a
2731.451	0.0	nontarget	4	2731451	ö	0	38.0	n/a	n/a	13
2733.634	0.0	target	5	2733634	z	1	28.0	1	0.412574	13
2733.934	0.5	BAD keypress	1	2733934	n/a	n/a	n/a	n/a	n/a	n/a
2734.184	0.0	keypress	3	2734184	n/a	n/a	n/a	n/a	n/a	n/a
2735.984	0.0	target	5	2735984	t	1	49.0	1	0.4304944	13
2736.317	0.5	BAD keypress	1	2736317	n/a	n/a	n/a	n/a	n/a	n/a
2736.567	0.0	keypress	3	2736567	n/a	n/a	n/a	n/a	n/a	n/a
2738.25	0.0	nontarget	4	2738250	ü	0	41.0	n/a	n/a	13
2740.783	0.0	nontarget	4	2740783	m	0	49.0	n/a	n/a	13
2742.75	0.0	nontarget	4	2742750	l	0	15.0	n/a	n/a	13
2745.283	0.0	nontarget	4	2745283	y	0	49.0	n/a	n/a	13
2747.7	0.0	nontarget	4	2747700	c	0	42.0	n/a	n/a	13
2749.783	0.0	target	5	2749783	s	1	22.0	1	0.486217	13
2750.133	0.5	BAD keypress	1	2750133	n/a	n/a	n/a	n/a	n/a	n/a
2750.383	0.0	keypress	3	2750383	n/a	n/a	n/a	n/a	n/a	n/a
2751.666	0.0	nontarget	4	2751666	u	0	18.0	n/a	n/a	13
2754.033	0.0	nontarget	4	2754033	w	0	39.0	n/a	n/a	13
2755.983	0.0	nontarget	4	2755983	k	0	14.0	n/a	n/a	13
2758.249	0.0	nontarget	4	2758249	r	0	33.0	n/a	n/a	13
2760.316	0.0	target	5	2760316	m	1	21.0	1	0.4646287	13
2760.633	0.5	BAD keypress	1	2760633	n/a	n/a	n/a	n/a	n/a	n/a
2760.883	0.0	keypress	3	2760883	n/a	n/a	n/a	n/a	n/a	n/a
2762.649	0.0	nontarget	4	2762649	h	0	46.0	n/a	n/a	13
2764.649	0.0	nontarget	4	2764649	n	0	17.0	n/a	n/a	13
2766.799	0.0	nontarget	4	2766799	a	0	26.0	n/a	n/a	13
2768.882	0.0	nontarget	4	2768882	ö	0	22.0	n/a	n/a	13
2770.965	0.0	nontarget	4	2770965	r	0	22.0	n/a	n/a	13
2773.282	0.0	nontarget	4	2773282	ü	0	36.0	n/a	n/a	13
2775.499	0.0	nontarget	4	2775499	i	0	30.0	n/a	n/a	13
2777.799	0.0	nontarget	4	2777799	u	0	35.0	n/a	n/a	13
2780.265	0.0	nontarget	4	2780265	ö	0	45.0	n/a	n/a	13
2782.248	0.0	nontarget	4	2782248	p	0	16.0	n/a	n/a	13
2784.765	0.0	nontarget	4	2784765	o	0	48.0	n/a	n/a	13
2786.831	0.0	nontarget	4	2786831	x	0	21.0	n/a	n/a	13
2788.865	0.0	nontarget	4	2788865	r	0	19.0	n/a	n/a	13
2791.031	0.0	nontarget	4	2791031	s	0	27.0	n/a	n/a	13
2793.515	0.0	nontarget	4	2793515	k	0	46.0	n/a	n/a	13
2795.464	0.0	target	5	2795464	b	1	14.0	1	0.4338064	13
2795.765	0.5	BAD keypress	1	2795765	n/a	n/a	n/a	n/a	n/a	n/a
2796.015	0.0	keypress	3	2796015	n/a	n/a	n/a	n/a	n/a	n/a
2797.231	0.0	nontarget	4	2797231	v	0	14.0	n/a	n/a	13
2799.398	0.0	nontarget	4	2799398	w	0	27.0	n/a	n/a	13
2801.597	0.0	nontarget	4	2801597	ß	0	29.0	n/a	n/a	13
2803.747	0.0	nontarget	4	2803747	y	0	26.0	n/a	n/a	13
2806.014	0.0	nontarget	4	2806014	l	0	33.0	n/a	n/a	13
2808.114	0.0	nontarget	4	2808114	x	0	23.0	n/a	n/a	13
2810.664	0.0	nontarget	4	2810664	ß	0	50.0	n/a	n/a	13
2813.147	0.0	target	5	2813147	z	1	46.0	1	0.4139704	13
2813.464	0.5	BAD keypress	1	2813464	n/a	n/a	n/a	n/a	n/a	n/a
2813.714	0.0	keypress	3	2813714	n/a	n/a	n/a	n/a	n/a	n/a
2815.064	0.0	nontarget	4	2815064	r	0	22.0	n/a	n/a	13
2817.38	0.0	target	5	2817380	v	1	36.0	1	0.5005845	13
2817.764	0.5	BAD keypress	1	2817764	n/a	n/a	n/a	n/a	n/a	n/a
2818.014	0.0	keypress	3	2818014	n/a	n/a	n/a	n/a	n/a	n/a
2819.613	0.0	nontarget	4	2819613	e	0	36.0	n/a	n/a	13
2821.913	0.0	target	5	2821913	q	1	35.0	1	0.46304	13
2822.23	0.5	BAD keypress	1	2822230	n/a	n/a	n/a	n/a	n/a	n/a
2822.48	0.0	keypress	3	2822480	n/a	n/a	n/a	n/a	n/a	n/a
2823.763	0.0	nontarget	4	2823763	z	0	18.0	n/a	n/a	13
2825.946	0.0	nontarget	4	2825946	r	0	28.0	n/a	n/a	13
2828.446	0.0	nontarget	4	2828446	ü	0	47.0	n/a	n/a	13
2830.446	0.0	nontarget	4	2830446	q	0	17.0	n/a	n/a	13
2832.846	0.0	nontarget	4	2832846	ä	0	41.0	n/a	n/a	13
2834.863	0.0	target	5	2834863	ü	1	18.0	1	0.424794	13
2835.179	0.5	BAD keypress	1	2835179	n/a	n/a	n/a	n/a	n/a	n/a
2835.429	0.0	keypress	3	2835429	n/a	n/a	n/a	n/a	n/a	n/a
2836.913	0.0	nontarget	4	2836913	u	0	30.0	n/a	n/a	13
2838.896	0.0	nontarget	4	2838896	c	0	16.0	n/a	n/a	13
2840.929	0.0	nontarget	4	2840929	b	0	19.0	n/a	n/a	13
2843.179	0.0	nontarget	4	2843179	t	0	32.0	n/a	n/a	13
2845.629	0.0	nontarget	4	2845629	u	0	44.0	n/a	n/a	13
2847.612	0.0	nontarget	4	2847612	k	0	16.0	n/a	n/a	13
2849.662	0.0	nontarget	4	2849662	f	0	20.0	n/a	n/a	13
2851.779	0.0	nontarget	4	2851779	w	0	24.0	n/a	n/a	13
2853.929	0.0	nontarget	4	2853929	v	0	26.0	n/a	n/a	13
2855.029	25.36499999999978	BAD_break	2	2855029	n/a	n/a	n/a	n/a	n/a	n/a
2880.894	0.0	target	5	2880894	e	1	42.0	1	0.4383374	14
2881.194	0.5	BAD keypress	1	2881194	n/a	n/a	n/a	n/a	n/a	n/a
2881.444	0.0	keypress	3	2881444	n/a	n/a	n/a	n/a	n/a	n/a
2882.844	0.0	target	5	2882844	t	1	25.0	1	0.3922934	14
2883.127	0.5	BAD keypress	1	2883127	n/a	n/a	n/a	n/a	n/a	n/a
2883.377	0.0	keypress	3	2883377	n/a	n/a	n/a	n/a	n/a	n/a
2885.211	0.0	nontarget	4	2885211	g	0	50.0	n/a	n/a	14
2887.46	0.0	nontarget	4	2887460	ä	0	32.0	n/a	n/a	14
2889.96	0.0	nontarget	4	2889960	ü	0	47.0	n/a	n/a	14
2892.46	0.0	nontarget	4	2892460	y	0	47.0	n/a	n/a	14
2894.543	0.0	nontarget	4	2894543	x	0	22.0	n/a	n/a	14
2896.827	0.0	target	5	2896827	f	1	34.0	1	0.5365718	14
2897.26	0.5	BAD keypress	1	2897260	n/a	n/a	n/a	n/a	n/a	n/a
2897.51	0.0	keypress	3	2897510	n/a	n/a	n/a	n/a	n/a	n/a
2899.227	0.0	nontarget	4	2899227	k	0	43.0	n/a	n/a	14
2901.26	0.0	nontarget	4	2901260	ä	0	19.0	n/a	n/a	14
2903.476	0.0	nontarget	4	2903476	u	0	30.0	n/a	n/a	14
2905.46	0.0	nontarget	4	2905460	h	0	16.0	n/a	n/a	14
2907.776	0.0	nontarget	4	2907776	q	0	36.0	n/a	n/a	14
2909.876	0.0	nontarget	4	2909876	k	0	23.0	n/a	n/a	14
2912.343	0.0	nontarget	4	2912343	w	0	45.0	n/a	n/a	14
2914.843	0.0	nontarget	4	2914843	j	0	47.0	n/a	n/a	14
2916.843	0.0	nontarget	4	2916843	d	0	17.0	n/a	n/a	14
2919.126	0.0	nontarget	4	2919126	z	0	34.0	n/a	n/a	14
2921.476	0.0	target	5	2921476	q	1	38.0	1	0.4940262	14
2921.876	0.5	BAD keypress	1	2921876	n/a	n/a	n/a	n/a	n/a	n/a
2922.126	0.0	keypress	3	2922126	n/a	n/a	n/a	n/a	n/a	n/a
2923.359	0.0	nontarget	4	2923359	l	0	14.0	n/a	n/a	14
2925.659	0.0	target	5	2925659	c	1	35.0	1	0.4545954	14
2926.009	0.5	BAD keypress	1	2926009	n/a	n/a	n/a	n/a	n/a	n/a
2926.259	0.0	keypress	3	2926259	n/a	n/a	n/a	n/a	n/a	n/a
2927.792	0.0	nontarget	4	2927792	v	0	33.0	n/a	n/a	14
2930.259	0.0	nontarget	4	2930259	a	0	45.0	n/a	n/a	14
2932.408	0.0	nontarget	4	2932408	u	0	26.0	n/a	n/a	14
2934.842	0.0	nontarget	4	2934842	n	0	43.0	n/a	n/a	14
2937.025	0.0	nontarget	4	2937025	o	0	28.0	n/a	n/a	14
2939.075	0.0	nontarget	4	2939075	ö	0	20.0	n/a	n/a	14
2941.291	0.0	nontarget	4	2941291	v	0	30.0	n/a	n/a	14
2943.358	0.0	nontarget	4	2943358	a	0	21.0	n/a	n/a	14
2945.825	0.0	nontarget	4	2945825	d	0	45.0	n/a	n/a	14
2948.274	0.0	nontarget	4	2948274	g	0	44.0	n/a	n/a	14
2950.391	0.0	nontarget	4	2950391	h	0	24.0	n/a	n/a	14
2952.858	0.0	nontarget	4	2952858	q	0	45.0	n/a	n/a	14
2955.291	0.0	nontarget	4	2955291	w	0	43.0	n/a	n/a	14
2957.641	0.0	nontarget	4	2957641	v	0	38.0	n/a	n/a	14
2960.024	0.0	target	5	2960024	o	1	40.0	1	0.4390722	14
2960.307	0.5	BAD keypress	1	2960307	n/a	n/a	n/a	n/a	n/a	n/a
2960.557	0.0	keypress	3	2960557	n/a	n/a	n/a	n/a	n/a	n/a
2962.391	0.0	nontarget	4	2962391	i	0	50.0	n/a	n/a	14
2964.774	0.0	nontarget	4	2964774	y	0	40.0	n/a	n/a	14
2967.007	0.0	nontarget	4	2967007	b	0	31.0	n/a	n/a	14
2969.507	0.0	nontarget	4	2969507	x	0	47.0	n/a	n/a	14
2971.823	0.0	nontarget	4	2971823	z	0	36.0	n/a	n/a	14
2974.073	0.0	nontarget	4	2974073	v	0	32.0	n/a	n/a	14
2976.323	0.0	nontarget	4	2976323	i	0	32.0	n/a	n/a	14
2978.64	0.0	target	5	2978640	c	1	36.0	1	0.4779623	14
2979.023	0.5	BAD keypress	1	2979023	n/a	n/a	n/a	n/a	n/a	n/a
2979.273	0.0	keypress	3	2979273	n/a	n/a	n/a	n/a	n/a	n/a
2980.856	0.0	nontarget	4	2980856	n	0	36.0	n/a	n/a	14
2983.323	0.0	nontarget	4	2983323	q	0	45.0	n/a	n/a	14
2985.656	0.0	nontarget	4	2985656	l	0	37.0	n/a	n/a	14
2987.756	0.0	nontarget	4	2987756	v	0	23.0	n/a	n/a	14
2989.923	0.0	target	5	2989923	c	1	27.0	1	0.458378	14
2990.256	0.5	BAD keypress	1	2990256	n/a	n/a	n/a	n/a	n/a	n/a
2990.506	0.0	keypress	3	2990506	n/a	n/a	n/a	n/a	n/a	n/a
2992.056	0.0	nontarget	4	2992056	r	0	33.0	n/a	n/a	14
2994.372	0.0	nontarget	4	2994372	b	0	36.0	n/a	n/a	14
2996.606	0.0	target	5	2996606	a	1	31.0	1	0.3987763	14
2996.872	0.5	BAD keypress	1	2996872	n/a	n/a	n/a	n/a	n/a	n/a
2997.122	0.0	keypress	3	2997122	n/a	n/a	n/a	n/a	n/a	n/a
2998.556	0.0	nontarget	4	2998556	o	0	27.0	n/a	n/a	14
3001.055	0.0	nontarget	4	3001055	y	0	47.0	n/a	n/a	14
3003.555	0.0	target	5	3003555	w	1	47.0	1	0.4886408	14
3003.905	0.5	BAD keypress	1	3003905	n/a	n/a	n/a	n/a	n/a	n/a
3004.155	0.0	keypress	3	3004155	n/a	n/a	n/a	n/a	n/a	n/a
3005.839	0.0	nontarget	4	3005839	c	0	42.0	n/a	n/a	14
3008.322	0.0	nontarget	4	3008322	q	0	46.0	n/a	n/a	14
3010.522	0.0	nontarget	4	3010522	ß	0	29.0	n/a	n/a	14
3012.672	0.0	nontarget	4	3012672	i	0	26.0	n/a	n/a	14
3014.838	0.0	nontarget	4	3014838	y	0	27.0	n/a	n/a	14
3015.938	12.621000000000096	BAD_break	2	3015938	n/a	n/a	n/a	n/a	n/a	n/a
