onset	duration	trial_type	value	sample	stimulus	target	blank_jitter_frames	accuracy	response_time	block
0.0	169.943	BAD_break	3	0	n/a	n/a	n/a	n/a	n/a	n/a
170.193	0.5	BAD keypress	2	170193	n/a	n/a	n/a	n/a	n/a	n/a
170.443	0.0	keypress	4	170443	n/a	n/a	n/a	n/a	n/a	n/a
171.776	0.0	nontarget	5	171776	n	0	22.0	n/a	n/a	1
174.159	0.0	target	6	174159	a	1	40.0	1	0.4017588	1
174.426	0.5	BAD keypress	2	174426	n/a	n/a	n/a	n/a	n/a	n/a
174.676	0.0	keypress	4	174676	n/a	n/a	n/a	n/a	n/a	n/a
176.042	0.0	nontarget	5	176042	i	0	23.0	n/a	n/a	1
178.142	0.0	nontarget	5	178142	t	0	23.0	n/a	n/a	1
180.542	0.0	target	6	180542	j	1	41.0	1	0.4342316	1
180.876	0.5	BAD keypress	2	180876	n/a	n/a	n/a	n/a	n/a	n/a
181.126	0.0	keypress	4	181126	n/a	n/a	n/a	n/a	n/a	n/a
182.942	0.0	nontarget	5	182942	ö	0	50.0	n/a	n/a	1
185.042	0.0	nontarget	5	185042	k	0	23.0	n/a	n/a	1
187.209	0.0	nontarget	5	187209	d	0	27.0	n/a	n/a	1
189.542	0.0	nontarget	5	189542	m	0	37.0	n/a	n/a	1
191.708	0.0	nontarget	5	191708	n	0	27.0	n/a	n/a	1
194.158	0.0	nontarget	5	194158	i	0	44.0	n/a	n/a	1
196.625	0.0	target	6	196625	k	1	45.0	1	0.3986321	1
196.925	0.5	BAD keypress	2	196925	n/a	n/a	n/a	n/a	n/a	n/a
197.175	0.0	keypress	4	197175	n/a	n/a	n/a	n/a	n/a	n/a
198.475	0.0	target	6	198475	b	1	18.0	1	0.4844996	1
198.842	0.5	BAD keypress	2	198842	n/a	n/a	n/a	n/a	n/a	n/a
199.092	0.0	keypress	4	199092	n/a	n/a	n/a	n/a	n/a	n/a
200.891	0.0	nontarget	5	200891	s	0	49.0	n/a	n/a	1
202.991	0.0	nontarget	5	202991	x	0	23.0	n/a	n/a	1
205.058	0.0	nontarget	5	205058	o	0	21.0	n/a	n/a	1
207.024	0.0	nontarget	5	207024	ü	0	15.0	n/a	n/a	1
209.491	0.0	target	6	209491	f	1	45.0	1	0.4116052	1
209.841	0.5	BAD keypress	2	209841	n/a	n/a	n/a	n/a	n/a	n/a
210.091	0.0	keypress	4	210091	n/a	n/a	n/a	n/a	n/a	n/a
211.858	0.0	nontarget	5	211858	k	0	47.0	n/a	n/a	1
214.274	0.0	nontarget	5	214274	a	0	42.0	n/a	n/a	1
216.424	0.0	nontarget	5	216424	j	0	26.0	n/a	n/a	1
218.457	0.0	target	6	218457	k	1	19.0	1	0.4687387	1
218.824	0.5	BAD keypress	2	218824	n/a	n/a	n/a	n/a	n/a	n/a
219.074	0.0	keypress	4	219074	n/a	n/a	n/a	n/a	n/a	n/a
220.474	0.0	target	6	220474	e	1	24.0	1	0.4680834	1
220.857	0.5	BAD keypress	2	220857	n/a	n/a	n/a	n/a	n/a	n/a
221.107	0.0	keypress	4	221107	n/a	n/a	n/a	n/a	n/a	n/a
222.74	0.0	nontarget	5	222740	r	0	39.0	n/a	n/a	1
224.707	0.0	target	6	224707	s	1	15.0	1	0.4906456	1
225.14	0.5	BAD keypress	2	225140	n/a	n/a	n/a	n/a	n/a	n/a
225.39	0.0	keypress	4	225390	n/a	n/a	n/a	n/a	n/a	n/a
225.64	0.5	BAD keypress	2	225640	n/a	n/a	n/a	n/a	n/a	n/a
225.89	0.0	keypress	4	225890	n/a	n/a	n/a	n/a	n/a	n/a
227.057	0.0	nontarget	5	227057	d	0	41.0	n/a	n/a	1
229.123	0.0	target	6	229123	p	1	21.0	1	0.48989	1
229.524	0.5	BAD keypress	2	229524	n/a	n/a	n/a	n/a	n/a	n/a
229.774	0.0	keypress	4	229774	n/a	n/a	n/a	n/a	n/a	n/a
231.207	0.0	nontarget	5	231207	j	0	27.0	n/a	n/a	1
233.257	0.0	nontarget	5	233257	p	0	20.0	n/a	n/a	1
235.756	0.0	nontarget	5	235756	k	0	47.0	n/a	n/a	1
237.79	0.0	nontarget	5	237790	l	0	19.0	n/a	n/a	1
239.94	0.0	nontarget	5	239940	ä	0	26.0	n/a	n/a	1
241.906	0.0	nontarget	5	241906	j	0	15.0	n/a	n/a	1
244.406	0.0	nontarget	5	244406	a	0	47.0	n/a	n/a	1
246.873	0.0	nontarget	5	246873	e	0	45.0	n/a	n/a	1
249.206	0.0	nontarget	5	249206	b	0	37.0	n/a	n/a	1
251.506	0.0	nontarget	5	251506	ü	0	35.0	n/a	n/a	1
253.456	0.0	nontarget	5	253456	m	0	14.0	n/a	n/a	1
255.956	0.0	nontarget	5	255956	ä	0	47.0	n/a	n/a	1
258.472	0.0	nontarget	5	258472	ß	0	48.0	n/a	n/a	1
260.489	0.0	nontarget	5	260489	r	0	18.0	n/a	n/a	1
262.772	0.0	nontarget	5	262772	l	0	34.0	n/a	n/a	1
265.322	0.0	nontarget	5	265322	w	0	50.0	n/a	n/a	1
267.522	0.0	nontarget	5	267522	ö	0	29.0	n/a	n/a	1
269.472	0.0	nontarget	5	269472	q	0	14.0	n/a	n/a	1
271.972	0.0	target	6	271972	s	1	47.0	1	0.4229215	1
272.305	0.5	BAD keypress	2	272305	n/a	n/a	n/a	n/a	n/a	n/a
272.555	0.0	keypress	4	272555	n/a	n/a	n/a	n/a	n/a	n/a
273.838	0.0	nontarget	5	273838	a	0	18.0	n/a	n/a	1
276.388	0.0	nontarget	5	276388	ü	0	50.0	n/a	n/a	1
278.938	0.0	target	6	278938	v	1	50.0	1	0.4001033	1
279.288	0.5	BAD keypress	2	279288	n/a	n/a	n/a	n/a	n/a	n/a
279.538	0.0	keypress	4	279538	n/a	n/a	n/a	n/a	n/a	n/a
281.154	0.0	nontarget	5	281154	v	0	38.0	n/a	n/a	1
283.188	0.0	nontarget	5	283188	u	0	19.0	n/a	n/a	1
285.421	0.0	nontarget	5	285421	p	0	31.0	n/a	n/a	1
287.388	0.0	nontarget	5	287388	h	0	15.0	n/a	n/a	1
289.537	0.0	nontarget	5	289537	ß	0	26.0	n/a	n/a	1
291.921	0.0	nontarget	5	291921	o	0	40.0	n/a	n/a	1
294.271	0.0	nontarget	5	294271	t	0	38.0	n/a	n/a	1
296.504	0.0	nontarget	5	296504	u	0	31.0	n/a	n/a	1
299.02	0.0	nontarget	5	299020	l	0	48.0	n/a	n/a	1
301.404	0.0	nontarget	5	301404	w	0	40.0	n/a	n/a	1
303.437	0.0	nontarget	5	303437	n	0	19.0	n/a	n/a	1
305.737	0.0	nontarget	5	305737	d	0	35.0	n/a	n/a	1
307.72	0.0	nontarget	5	307720	c	0	16.0	n/a	n/a	1
310.07	0.0	nontarget	5	310070	f	0	38.0	n/a	n/a	1
312.503	0.0	target	6	312503	t	1	43.0	1	0.4486098	1
312.87	0.5	BAD keypress	2	312870	n/a	n/a	n/a	n/a	n/a	n/a
313.12	0.0	keypress	4	313120	n/a	n/a	n/a	n/a	n/a	n/a
314.336	0.0	nontarget	5	314336	a	0	14.0	n/a	n/a	1
316.37	0.0	nontarget	5	316370	ü	0	19.0	n/a	n/a	1
317.47	38.297999999999945	BAD_break	3	317470	n/a	n/a	n/a	n/a	n/a	n/a
356.268	0.0	nontarget	5	356268	ö	0	23.0	n/a	n/a	2
358.268	0.0	nontarget	5	358268	f	0	17.0	n/a	n/a	2
360.651	0.0	nontarget	5	360651	b	0	40.0	n/a	n/a	2
363.134	0.0	nontarget	5	363134	j	0	46.0	n/a	n/a	2
365.084	0.0	nontarget	5	365084	x	0	14.0	n/a	n/a	2
367.534	0.0	nontarget	5	367534	u	0	44.0	n/a	n/a	2
369.801	0.0	nontarget	5	369801	q	0	33.0	n/a	n/a	2
372.25	0.0	nontarget	5	372250	d	0	44.0	n/a	n/a	2
374.384	0.0	target	6	374384	w	1	25.0	1	0.4198638	2
374.75	0.5	BAD keypress	2	374750	n/a	n/a	n/a	n/a	n/a	n/a
375.0	0.0	keypress	4	375000	n/a	n/a	n/a	n/a	n/a	n/a
376.267	0.0	nontarget	5	376267	r	0	17.0	n/a	n/a	2
378.567	0.0	nontarget	5	378567	i	0	35.0	n/a	n/a	2
380.717	0.0	nontarget	5	380717	e	0	26.0	n/a	n/a	2
383.2	0.0	nontarget	5	383200	ä	0	46.0	n/a	n/a	2
385.2	0.0	nontarget	5	385200	l	0	17.0	n/a	n/a	2
387.216	0.0	nontarget	5	387216	ü	0	18.0	n/a	n/a	2
389.483	0.0	nontarget	5	389483	u	0	33.0	n/a	n/a	2
391.95	0.0	nontarget	5	391950	g	0	45.0	n/a	n/a	2
394.299	0.0	nontarget	5	394299	r	0	38.0	n/a	n/a	2
396.266	0.0	nontarget	5	396266	y	0	15.0	n/a	n/a	2
398.416	0.0	nontarget	5	398416	n	0	26.0	n/a	n/a	2
400.616	0.0	target	6	400616	c	1	29.0	1	0.4420275	2
400.949	0.5	BAD keypress	2	400949	n/a	n/a	n/a	n/a	n/a	n/a
401.199	0.0	keypress	4	401199	n/a	n/a	n/a	n/a	n/a	n/a
402.482	0.0	nontarget	5	402482	o	0	18.0	n/a	n/a	2
404.899	0.0	nontarget	5	404899	x	0	39.0	n/a	n/a	2
407.216	0.0	nontarget	5	407216	n	0	36.0	n/a	n/a	2
409.415	0.0	target	6	409415	n	1	29.0	1	0.393843	2
409.716	0.5	BAD keypress	2	409716	n/a	n/a	n/a	n/a	n/a	n/a
409.966	0.0	keypress	4	409966	n/a	n/a	n/a	n/a	n/a	n/a
411.416	0.0	target	6	411416	ü	1	27.0	1	0.457799	2
411.799	0.5	BAD keypress	2	411799	n/a	n/a	n/a	n/a	n/a	n/a
412.049	0.0	keypress	4	412049	n/a	n/a	n/a	n/a	n/a	n/a
413.765	0.0	nontarget	5	413765	c	0	44.0	n/a	n/a	2
415.982	0.0	target	6	415982	l	1	30.0	1	0.5150578	2
416.399	0.5	BAD keypress	2	416399	n/a	n/a	n/a	n/a	n/a	n/a
416.649	0.0	keypress	4	416649	n/a	n/a	n/a	n/a	n/a	n/a
418.448	0.0	nontarget	5	418448	u	0	49.0	n/a	n/a	2
420.548	0.0	nontarget	5	420548	d	0	23.0	n/a	n/a	2
422.998	0.0	nontarget	5	422998	g	0	44.0	n/a	n/a	2
425.065	0.0	target	6	425065	b	1	21.0	1	0.4235577	2
425.398	0.5	BAD keypress	2	425398	n/a	n/a	n/a	n/a	n/a	n/a
425.648	0.0	keypress	4	425648	n/a	n/a	n/a	n/a	n/a	n/a
427.448	0.0	nontarget	5	427448	ä	0	49.0	n/a	n/a	2
429.931	0.0	nontarget	5	429931	p	0	46.0	n/a	n/a	2
431.998	0.0	nontarget	5	431998	i	0	21.0	n/a	n/a	2
434.148	0.0	nontarget	5	434148	o	0	26.0	n/a	n/a	2
436.181	0.0	nontarget	5	436181	y	0	19.0	n/a	n/a	2
438.181	0.0	nontarget	5	438181	a	0	17.0	n/a	n/a	2
440.214	0.0	nontarget	5	440214	l	0	19.0	n/a	n/a	2
442.397	0.0	target	6	442397	l	1	28.0	1	0.4498991	2
442.731	0.5	BAD keypress	2	442731	n/a	n/a	n/a	n/a	n/a	n/a
442.981	0.0	keypress	4	442981	n/a	n/a	n/a	n/a	n/a	n/a
444.564	0.0	nontarget	5	444564	i	0	36.0	n/a	n/a	2
446.714	0.0	nontarget	5	446714	k	0	26.0	n/a	n/a	2
448.78	0.0	nontarget	5	448780	g	0	21.0	n/a	n/a	2
451.197	0.0	nontarget	5	451197	q	0	42.0	n/a	n/a	2
453.48	0.0	target	6	453480	ü	1	34.0	1	0.4542275	2
453.83	0.5	BAD keypress	2	453830	n/a	n/a	n/a	n/a	n/a	n/a
454.08	0.0	keypress	4	454080	n/a	n/a	n/a	n/a	n/a	n/a
455.613	0.0	nontarget	5	455613	i	0	33.0	n/a	n/a	2
457.63	0.0	nontarget	5	457630	m	0	18.0	n/a	n/a	2
459.797	0.0	nontarget	5	459797	z	0	27.0	n/a	n/a	2
462.28	0.0	nontarget	5	462280	ß	0	46.0	n/a	n/a	2
464.313	0.0	nontarget	5	464313	q	0	19.0	n/a	n/a	2
466.463	0.0	nontarget	5	466463	d	0	26.0	n/a	n/a	2
468.579	0.0	nontarget	5	468579	e	0	24.0	n/a	n/a	2
470.579	0.0	nontarget	5	470579	x	0	17.0	n/a	n/a	2
472.796	0.0	target	6	472796	p	1	30.0	1	0.4010731	2
473.096	0.5	BAD keypress	2	473096	n/a	n/a	n/a	n/a	n/a	n/a
473.346	0.0	keypress	4	473346	n/a	n/a	n/a	n/a	n/a	n/a
474.946	0.0	target	6	474946	c	1	37.0	1	0.4431273	2
475.296	0.5	BAD keypress	2	475296	n/a	n/a	n/a	n/a	n/a	n/a
475.546	0.0	keypress	4	475546	n/a	n/a	n/a	n/a	n/a	n/a
476.979	0.0	nontarget	5	476979	v	0	27.0	n/a	n/a	2
479.212	0.0	nontarget	5	479212	f	0	31.0	n/a	n/a	2
481.312	0.0	nontarget	5	481312	a	0	23.0	n/a	n/a	2
483.462	0.0	nontarget	5	483462	t	0	26.0	n/a	n/a	2
485.645	0.0	nontarget	5	485645	ä	0	28.0	n/a	n/a	2
488.145	0.0	target	6	488145	y	1	47.0	1	0.4107816	2
488.495	0.5	BAD keypress	2	488495	n/a	n/a	n/a	n/a	n/a	n/a
488.745	0.0	keypress	4	488745	n/a	n/a	n/a	n/a	n/a	n/a
490.462	0.0	nontarget	5	490462	ö	0	44.0	n/a	n/a	2
492.562	0.0	nontarget	5	492562	r	0	23.0	n/a	n/a	2
494.812	0.0	nontarget	5	494812	i	0	32.0	n/a	n/a	2
497.112	0.0	nontarget	5	497112	ä	0	35.0	n/a	n/a	2
499.111	0.0	nontarget	5	499111	ü	0	17.0	n/a	n/a	2
500.211	135.74400000000003	BAD_break	3	500211	n/a	n/a	n/a	n/a	n/a	n/a
636.455	0.0	nontarget	5	636455	z	0	45.0	n/a	n/a	3
638.572	0.0	nontarget	5	638572	i	0	24.0	n/a	n/a	3
640.622	0.0	nontarget	5	640622	m	0	20.0	n/a	n/a	3
642.622	0.0	nontarget	5	642622	o	0	17.0	n/a	n/a	3
644.738	0.0	nontarget	5	644738	a	0	24.0	n/a	n/a	3
646.822	0.0	nontarget	5	646822	d	0	22.0	n/a	n/a	3
649.271	0.0	target	6	649271	k	1	44.0	1	0.3777784	3
649.572	0.5	BAD keypress	2	649572	n/a	n/a	n/a	n/a	n/a	n/a
649.822	0.0	keypress	4	649822	n/a	n/a	n/a	n/a	n/a	n/a
651.138	0.0	nontarget	5	651138	y	0	20.0	n/a	n/a	3
653.655	0.0	target	6	653655	o	1	48.0	1	0.3944141	3
653.955	0.5	BAD keypress	2	653955	n/a	n/a	n/a	n/a	n/a	n/a
654.205	0.0	keypress	4	654205	n/a	n/a	n/a	n/a	n/a	n/a
655.438	0.0	nontarget	5	655438	d	0	15.0	n/a	n/a	3
657.688	0.0	nontarget	5	657688	o	0	32.0	n/a	n/a	3
659.954	0.0	nontarget	5	659954	q	0	33.0	n/a	n/a	3
662.488	0.0	nontarget	5	662488	b	0	49.0	0	0.2808327	3
662.488	1.0	BAD incorrect	1	662488	b	0	49.0	0	0.2808327	3
662.654	0.5	BAD keypress	2	662654	n/a	n/a	n/a	n/a	n/a	n/a
662.904	0.0	keypress	4	662904	n/a	n/a	n/a	n/a	n/a	n/a
664.971	0.0	nontarget	5	664971	l	0	34.0	n/a	n/a	3
667.071	0.0	nontarget	5	667071	p	0	23.0	n/a	n/a	3
669.237	0.0	nontarget	5	669237	t	0	27.0	n/a	n/a	3
671.62	0.0	nontarget	5	671620	n	0	40.0	n/a	n/a	3
674.087	0.0	nontarget	5	674087	v	0	45.0	n/a	n/a	3
676.254	0.0	nontarget	5	676254	o	0	27.0	n/a	n/a	3
678.553	0.0	target	6	678553	y	1	35.0	1	0.4057859	3
678.854	0.5	BAD keypress	2	678854	n/a	n/a	n/a	n/a	n/a	n/a
679.104	0.0	keypress	4	679104	n/a	n/a	n/a	n/a	n/a	n/a
680.57	0.0	nontarget	5	680570	a	0	29.0	n/a	n/a	3
683.02	0.0	nontarget	5	683020	n	0	44.0	n/a	n/a	3
685.503	0.0	nontarget	5	685503	d	0	46.0	n/a	n/a	3
687.636	0.0	nontarget	5	687636	e	0	25.0	n/a	n/a	3
689.636	0.0	nontarget	5	689636	t	0	17.0	n/a	n/a	3
691.62	0.0	nontarget	5	691620	j	0	16.0	n/a	n/a	3
694.086	0.0	nontarget	5	694086	r	0	45.0	n/a	n/a	3
696.269	0.0	nontarget	5	696269	f	0	28.0	n/a	n/a	3
698.553	0.0	nontarget	5	698553	ä	0	34.0	n/a	n/a	3
700.852	0.0	target	6	700852	r	1	35.0	1	0.4892883	3
701.253	0.5	BAD keypress	2	701253	n/a	n/a	n/a	n/a	n/a	n/a
701.503	0.0	keypress	4	701503	n/a	n/a	n/a	n/a	n/a	n/a
703.186	0.0	nontarget	5	703186	j	0	42.0	n/a	n/a	3
705.252	0.0	nontarget	5	705252	k	0	21.0	n/a	n/a	3
707.652	0.0	target	6	707652	p	1	41.0	1	0.4411988	3
708.002	0.5	BAD keypress	2	708002	n/a	n/a	n/a	n/a	n/a	n/a
708.252	0.0	keypress	4	708252	n/a	n/a	n/a	n/a	n/a	n/a
709.485	0.0	nontarget	5	709485	h	0	15.0	n/a	n/a	3
711.902	0.0	nontarget	5	711902	y	0	42.0	n/a	n/a	3
714.152	0.0	nontarget	5	714152	t	0	32.0	n/a	n/a	3
716.269	0.0	nontarget	5	716269	k	0	24.0	n/a	n/a	3
718.768	0.0	nontarget	5	718768	p	0	47.0	n/a	n/a	3
721.085	0.0	nontarget	5	721085	ß	0	36.0	n/a	n/a	3
723.518	0.0	nontarget	5	723518	q	0	43.0	n/a	n/a	3
725.985	0.0	target	6	725985	g	1	45.0	1	0.4114656	3
726.335	0.5	BAD keypress	2	726335	n/a	n/a	n/a	n/a	n/a	n/a
726.585	0.0	keypress	4	726585	n/a	n/a	n/a	n/a	n/a	n/a
727.885	0.0	nontarget	5	727885	v	0	19.0	n/a	n/a	3
730.135	0.0	nontarget	5	730135	b	0	32.0	n/a	n/a	3
732.534	0.0	nontarget	5	732534	f	0	41.0	n/a	n/a	3
734.734	0.0	nontarget	5	734734	i	0	29.0	n/a	n/a	3
736.901	0.0	target	6	736901	s	1	27.0	1	0.4384822	3
737.251	0.5	BAD keypress	2	737251	n/a	n/a	n/a	n/a	n/a	n/a
737.501	0.0	keypress	4	737501	n/a	n/a	n/a	n/a	n/a	n/a
738.884	0.0	target	6	738884	y	1	24.0	1	0.4711638	3
739.234	0.5	BAD keypress	2	739234	n/a	n/a	n/a	n/a	n/a	n/a
739.484	0.0	keypress	4	739484	n/a	n/a	n/a	n/a	n/a	n/a
741.234	0.0	nontarget	5	741234	q	0	46.0	n/a	n/a	3
743.734	0.0	nontarget	5	743734	m	0	47.0	n/a	n/a	3
745.75	0.0	nontarget	5	745750	a	0	18.0	n/a	n/a	3
747.817	0.0	nontarget	5	747817	v	0	21.0	n/a	n/a	3
750.25	0.0	nontarget	5	750250	ü	0	43.0	n/a	n/a	3
752.3	0.0	target	6	752300	j	1	20.0	1	0.4941658	3
752.717	0.5	BAD keypress	2	752717	n/a	n/a	n/a	n/a	n/a	n/a
752.967	0.0	keypress	4	752967	n/a	n/a	n/a	n/a	n/a	n/a
754.533	0.0	nontarget	5	754533	r	0	35.0	n/a	n/a	3
757.067	0.0	nontarget	5	757067	j	0	49.0	n/a	n/a	3
759.483	0.0	nontarget	5	759483	ü	0	42.0	n/a	n/a	3
761.516	0.0	nontarget	5	761516	q	0	19.0	n/a	n/a	3
763.716	0.0	nontarget	5	763716	ß	0	29.0	n/a	n/a	3
765.866	0.0	nontarget	5	765866	g	0	26.0	n/a	n/a	3
768.299	0.0	nontarget	5	768299	c	0	43.0	n/a	n/a	3
770.699	0.0	nontarget	5	770699	z	0	41.0	n/a	n/a	3
773.049	0.0	nontarget	5	773049	ä	0	38.0	n/a	n/a	3
775.199	0.0	nontarget	5	775199	r	0	26.0	n/a	n/a	3
777.382	0.0	nontarget	5	777382	ß	0	28.0	n/a	n/a	3
779.816	0.0	target	6	779816	i	1	43.0	1	0.432839	3
780.182	0.5	BAD keypress	2	780182	n/a	n/a	n/a	n/a	n/a	n/a
780.432	0.0	keypress	4	780432	n/a	n/a	n/a	n/a	n/a	n/a
781.666	0.0	nontarget	5	781666	g	0	15.0	n/a	n/a	3
782.766	114.22799999999997	BAD_break	3	782766	n/a	n/a	n/a	n/a	n/a	n/a
897.494	0.0	nontarget	5	897494	r	0	32.0	n/a	n/a	4
899.577	0.0	nontarget	5	899577	e	0	22.0	n/a	n/a	4
901.677	0.0	nontarget	5	901677	v	0	23.0	n/a	n/a	4
903.843	0.0	nontarget	5	903843	h	0	27.0	n/a	n/a	4
906.077	0.0	nontarget	5	906077	r	0	31.0	n/a	n/a	4
908.393	0.0	target	6	908393	j	1	36.0	1	0.4865312	4
908.76	0.5	BAD keypress	2	908760	n/a	n/a	n/a	n/a	n/a	n/a
909.01	0.0	keypress	4	909010	n/a	n/a	n/a	n/a	n/a	n/a
910.727	0.0	nontarget	5	910727	x	0	44.0	n/a	n/a	4
912.96	0.0	nontarget	5	912960	ü	0	31.0	n/a	n/a	4
915.26	0.0	target	6	915260	h	1	35.0	1	0.4516868	4
915.61	0.5	BAD keypress	2	915610	n/a	n/a	n/a	n/a	n/a	n/a
915.86	0.0	keypress	4	915860	n/a	n/a	n/a	n/a	n/a	n/a
917.143	0.0	nontarget	5	917143	u	0	18.0	n/a	n/a	4
919.493	0.0	nontarget	5	919493	s	0	38.0	n/a	n/a	4
921.843	0.0	nontarget	5	921843	ß	0	38.0	n/a	n/a	4
924.226	0.0	nontarget	5	924226	ä	0	40.0	n/a	n/a	4
926.626	0.0	nontarget	5	926626	e	0	41.0	n/a	n/a	4
928.926	0.0	nontarget	5	928926	t	0	35.0	n/a	n/a	4
931.159	0.0	nontarget	5	931159	b	0	31.0	n/a	n/a	4
933.309	0.0	nontarget	5	933309	u	0	26.0	n/a	n/a	4
935.559	0.0	nontarget	5	935559	l	0	32.0	n/a	n/a	4
938.042	0.0	nontarget	5	938042	o	0	46.0	n/a	n/a	4
940.175	0.0	nontarget	5	940175	z	0	25.0	n/a	n/a	4
942.175	0.0	target	6	942175	a	1	17.0	1	0.4464049	4
942.525	0.5	BAD keypress	2	942525	n/a	n/a	n/a	n/a	n/a	n/a
942.775	0.0	keypress	4	942775	n/a	n/a	n/a	n/a	n/a	n/a
944.075	0.0	nontarget	5	944075	ü	0	19.0	n/a	n/a	4
946.192	0.0	nontarget	5	946192	f	0	24.0	n/a	n/a	4
948.392	0.0	nontarget	5	948392	z	0	29.0	n/a	n/a	4
950.908	0.0	nontarget	5	950908	j	0	48.0	n/a	n/a	4
952.925	0.0	nontarget	5	952925	c	0	18.0	n/a	n/a	4
955.341	0.0	nontarget	5	955341	o	0	42.0	n/a	n/a	4
957.758	0.0	nontarget	5	957758	f	0	42.0	n/a	n/a	4
959.724	0.0	nontarget	5	959724	t	0	15.0	n/a	n/a	4
961.958	0.0	nontarget	5	961958	c	0	31.0	n/a	n/a	4
964.407	0.0	nontarget	5	964407	ß	0	44.0	n/a	n/a	4
966.524	0.0	target	6	966524	ü	1	24.0	1	0.495969	4
966.941	0.5	BAD keypress	2	966941	n/a	n/a	n/a	n/a	n/a	n/a
967.191	0.0	keypress	4	967191	n/a	n/a	n/a	n/a	n/a	n/a
968.541	0.0	nontarget	5	968541	w	0	22.0	n/a	n/a	4
970.507	0.0	nontarget	5	970507	p	0	15.0	n/a	n/a	4
972.54	0.0	nontarget	5	972540	g	0	19.0	n/a	n/a	4
975.074	0.0	nontarget	5	975074	ß	0	49.0	n/a	n/a	4
977.357	0.0	nontarget	5	977357	w	0	34.0	n/a	n/a	4
979.423	0.0	nontarget	5	979423	b	0	21.0	n/a	n/a	4
981.673	0.0	nontarget	5	981673	x	0	32.0	n/a	n/a	4
983.69	0.0	target	6	983690	m	1	18.0	1	0.5129166	4
984.123	0.5	BAD keypress	2	984123	n/a	n/a	n/a	n/a	n/a	n/a
984.373	0.0	keypress	4	984373	n/a	n/a	n/a	n/a	n/a	n/a
986.157	0.0	nontarget	5	986157	ß	0	48.0	n/a	n/a	4
988.206	0.0	nontarget	5	988206	p	0	20.0	n/a	n/a	4
990.173	0.0	nontarget	5	990173	m	0	15.0	n/a	n/a	4
992.69	0.0	nontarget	5	992690	q	0	48.0	n/a	n/a	4
995.106	0.0	target	6	995106	f	1	42.0	1	0.4719651	4
995.456	0.5	BAD keypress	2	995456	n/a	n/a	n/a	n/a	n/a	n/a
995.706	0.0	keypress	4	995706	n/a	n/a	n/a	n/a	n/a	n/a
996.989	0.0	target	6	996989	d	1	17.0	1	0.5245881	4
997.423	0.5	BAD keypress	2	997423	n/a	n/a	n/a	n/a	n/a	n/a
997.673	0.0	keypress	4	997673	n/a	n/a	n/a	n/a	n/a	n/a
999.373	0.0	nontarget	5	999373	ö	0	43.0	n/a	n/a	4
1001.722	0.0	target	6	1001722	z	1	38.0	1	0.4791719	4
1002.106	0.5	BAD keypress	2	1002106	n/a	n/a	n/a	n/a	n/a	n/a
1002.356	0.0	keypress	4	1002356	n/a	n/a	n/a	n/a	n/a	n/a
1003.656	0.0	nontarget	5	1003656	c	0	19.0	n/a	n/a	4
1006.072	0.0	target	6	1006072	u	1	42.0	1	0.5130733	4
1006.506	0.5	BAD keypress	2	1006506	n/a	n/a	n/a	n/a	n/a	n/a
1006.756	0.0	keypress	4	1006756	n/a	n/a	n/a	n/a	n/a	n/a
1008.256	0.0	nontarget	5	1008256	s	0	31.0	n/a	n/a	4
1010.305	0.0	target	6	1010305	t	1	20.0	1	0.5196692	4
1010.772	0.5	BAD keypress	2	1010772	n/a	n/a	n/a	n/a	n/a	n/a
1011.022	0.0	keypress	4	1011022	n/a	n/a	n/a	n/a	n/a	n/a
1012.472	0.0	nontarget	5	1012472	w	0	28.0	n/a	n/a	4
1014.489	0.0	nontarget	5	1014489	t	0	18.0	n/a	n/a	4
1016.955	0.0	nontarget	5	1016955	m	0	45.0	n/a	n/a	4
1019.105	0.0	nontarget	5	1019105	k	0	26.0	n/a	n/a	4
1021.422	0.0	nontarget	5	1021422	f	0	36.0	n/a	n/a	4
1023.905	0.0	nontarget	5	1023905	r	0	46.0	n/a	n/a	4
1026.005	0.0	nontarget	5	1026005	h	0	23.0	n/a	n/a	4
1028.288	0.0	nontarget	5	1028288	a	0	34.0	n/a	n/a	4
1030.538	0.0	nontarget	5	1030538	ü	0	32.0	n/a	n/a	4
1033.054	0.0	nontarget	5	1033054	u	0	48.0	n/a	n/a	4
1035.504	0.0	nontarget	5	1035504	r	0	44.0	n/a	n/a	4
1037.771	0.0	nontarget	5	1037771	b	0	33.0	n/a	n/a	4
1040.104	0.0	target	6	1040104	ü	1	37.0	1	0.4629068	4
1040.471	0.5	BAD keypress	2	1040471	n/a	n/a	n/a	n/a	n/a	n/a
1040.721	0.0	keypress	4	1040721	n/a	n/a	n/a	n/a	n/a	n/a
1042.521	0.0	nontarget	5	1042521	ö	0	49.0	n/a	n/a	4
1043.621	75.94600000000014	BAD_break	3	1043621	n/a	n/a	n/a	n/a	n/a	n/a
1120.067	0.0	nontarget	5	1120067	v	0	28.0	n/a	n/a	5
1122.35	0.0	nontarget	5	1122350	s	0	34.0	n/a	n/a	5
1124.317	0.0	nontarget	5	1124317	d	0	15.0	n/a	n/a	5
1126.467	0.0	nontarget	5	1126467	ü	0	26.0	n/a	n/a	5
1128.45	0.0	nontarget	5	1128450	j	0	16.0	n/a	n/a	5
1130.733	0.0	nontarget	5	1130733	f	0	34.0	n/a	n/a	5
1132.883	0.0	nontarget	5	1132883	c	0	26.0	n/a	n/a	5
1135.117	0.0	nontarget	5	1135117	ö	0	31.0	n/a	n/a	5
1137.65	0.0	nontarget	5	1137650	g	0	49.0	n/a	n/a	5
1140.2	0.0	target	6	1140200	s	1	50.0	1	0.4886798	5
1140.583	0.5	BAD keypress	2	1140583	n/a	n/a	n/a	n/a	n/a	n/a
1140.833	0.0	keypress	4	1140833	n/a	n/a	n/a	n/a	n/a	n/a
1142.466	0.0	nontarget	5	1142466	n	0	39.0	n/a	n/a	5
1144.666	0.0	nontarget	5	1144666	o	0	29.0	n/a	n/a	5
1147.133	0.0	nontarget	5	1147133	e	0	45.0	n/a	n/a	5
1149.433	0.0	nontarget	5	1149433	ö	0	35.0	n/a	n/a	5
1151.649	0.0	nontarget	5	1151649	d	0	30.0	n/a	n/a	5
1153.699	0.0	target	6	1153699	t	1	20.0	1	0.4603496	5
1154.082	0.5	BAD keypress	2	1154082	n/a	n/a	n/a	n/a	n/a	n/a
1154.332	0.0	keypress	4	1154332	n/a	n/a	n/a	n/a	n/a	n/a
1156.032	0.0	nontarget	5	1156032	i	0	43.0	n/a	n/a	5
1158.466	0.0	nontarget	5	1158466	x	0	43.0	n/a	n/a	5
1160.932	0.0	nontarget	5	1160932	ß	0	45.0	n/a	n/a	5
1163.349	0.0	target	6	1163349	x	1	42.0	1	0.5221435	5
1163.815	0.5	BAD keypress	2	1163815	n/a	n/a	n/a	n/a	n/a	n/a
1164.065	0.0	keypress	4	1164065	n/a	n/a	n/a	n/a	n/a	n/a
1165.549	0.0	nontarget	5	1165549	l	0	30.0	n/a	n/a	5
1167.582	0.0	target	6	1167582	z	1	19.0	0	n/a	5
1170.082	0.0	target	6	1170082	n	1	16.0	1	0.4606098	5
1170.415	0.5	BAD keypress	2	1170415	n/a	n/a	n/a	n/a	n/a	n/a
1170.665	0.0	keypress	4	1170665	n/a	n/a	n/a	n/a	n/a	n/a
1172.432	0.0	nontarget	5	1172432	y	0	46.0	n/a	n/a	5
1174.831	0.0	nontarget	5	1174831	b	0	41.0	n/a	n/a	5
1176.798	0.0	target	6	1176798	i	1	15.0	1	0.4957683	5
1177.198	0.5	BAD keypress	2	1177198	n/a	n/a	n/a	n/a	n/a	n/a
1177.448	0.0	keypress	4	1177448	n/a	n/a	n/a	n/a	n/a	n/a
1178.965	0.0	nontarget	5	1178965	a	0	32.0	n/a	n/a	5
1180.931	0.0	nontarget	5	1180931	m	0	15.0	n/a	n/a	5
1183.064	0.0	nontarget	5	1183064	y	0	25.0	n/a	n/a	5
1185.298	0.0	nontarget	5	1185298	v	0	31.0	n/a	n/a	5
1187.498	0.0	target	6	1187498	o	1	29.0	1	0.5315714	5
1187.898	0.5	BAD keypress	2	1187898	n/a	n/a	n/a	n/a	n/a	n/a
1188.148	0.0	keypress	4	1188148	n/a	n/a	n/a	n/a	n/a	n/a
1189.447	0.0	target	6	1189447	l	1	19.0	1	0.4694788	5
1189.814	0.5	BAD keypress	2	1189814	n/a	n/a	n/a	n/a	n/a	n/a
1190.064	0.0	keypress	4	1190064	n/a	n/a	n/a	n/a	n/a	n/a
1191.731	0.0	nontarget	5	1191731	l	0	41.0	n/a	n/a	5
1194.131	0.0	nontarget	5	1194131	a	0	41.0	n/a	n/a	5
1196.464	0.0	nontarget	5	1196464	z	0	37.0	n/a	n/a	5
1198.98	0.0	nontarget	5	1198980	ß	0	48.0	n/a	n/a	5
1201.264	0.0	nontarget	5	1201264	l	0	34.0	n/a	n/a	5
1203.814	0.0	nontarget	5	1203814	j	0	50.0	n/a	n/a	5
1206.147	0.0	nontarget	5	1206147	u	0	37.0	n/a	n/a	5
1208.097	0.0	target	6	1208097	m	1	14.0	1	0.5550601	5
1208.563	0.5	BAD keypress	2	1208563	n/a	n/a	n/a	n/a	n/a	n/a
1208.813	0.0	keypress	4	1208813	n/a	n/a	n/a	n/a	n/a	n/a
1210.613	0.0	nontarget	5	1210613	ü	0	49.0	n/a	n/a	5
1212.696	0.0	nontarget	5	1212696	x	0	22.0	n/a	n/a	5
1215.063	0.0	nontarget	5	1215063	u	0	39.0	n/a	n/a	5
1217.113	0.0	nontarget	5	1217113	p	0	20.0	n/a	n/a	5
1219.279	0.0	target	6	1219279	x	1	27.0	1	0.587544	5
1219.763	0.5	BAD keypress	2	1219763	n/a	n/a	n/a	n/a	n/a	n/a
1220.013	0.0	keypress	4	1220013	n/a	n/a	n/a	n/a	n/a	n/a
1221.563	0.0	nontarget	5	1221563	i	0	34.0	n/a	n/a	5
1223.613	0.0	nontarget	5	1223613	ü	0	20.0	n/a	n/a	5
1225.713	0.0	nontarget	5	1225713	c	0	23.0	n/a	n/a	5
1227.729	0.0	nontarget	5	1227729	z	0	18.0	n/a	n/a	5
1230.196	0.0	nontarget	5	1230196	n	0	45.0	n/a	n/a	5
1232.746	0.0	nontarget	5	1232746	m	0	50.0	n/a	n/a	5
1235.279	0.0	nontarget	5	1235279	w	0	49.0	n/a	n/a	5
1237.612	0.0	nontarget	5	1237612	z	0	37.0	n/a	n/a	5
1240.145	0.0	nontarget	5	1240145	f	0	49.0	n/a	n/a	5
1242.662	0.0	target	6	1242662	w	1	48.0	1	0.5796433	5
1243.129	0.5	BAD keypress	2	1243129	n/a	n/a	n/a	n/a	n/a	n/a
1243.379	0.0	keypress	4	1243379	n/a	n/a	n/a	n/a	n/a	n/a
1244.762	0.0	nontarget	5	1244762	g	0	24.0	n/a	n/a	5
1247.128	0.0	nontarget	5	1247128	t	0	39.0	n/a	n/a	5
1249.578	0.0	target	6	1249578	p	1	44.0	1	0.4948342	5
1249.995	0.5	BAD keypress	2	1249995	n/a	n/a	n/a	n/a	n/a	n/a
1250.245	0.0	keypress	4	1250245	n/a	n/a	n/a	n/a	n/a	n/a
1251.778	0.0	nontarget	5	1251778	ü	0	33.0	n/a	n/a	5
1254.078	0.0	nontarget	5	1254078	a	0	35.0	n/a	n/a	5
1256.028	0.0	nontarget	5	1256028	q	0	14.0	n/a	n/a	5
1258.128	0.0	target	6	1258128	w	1	23.0	1	0.5366433	5
1258.561	0.5	BAD keypress	2	1258561	n/a	n/a	n/a	n/a	n/a	n/a
1258.811	0.0	keypress	4	1258811	n/a	n/a	n/a	n/a	n/a	n/a
1260.511	0.0	nontarget	5	1260511	p	0	43.0	n/a	n/a	5
1262.878	0.0	nontarget	5	1262878	l	0	39.0	n/a	n/a	5
1265.294	0.0	nontarget	5	1265294	f	0	42.0	n/a	n/a	5
1267.311	0.0	nontarget	5	1267311	y	0	18.0	n/a	n/a	5
1268.411	132.89400000000023	BAD_break	3	1268411	n/a	n/a	n/a	n/a	n/a	n/a
1401.805	0.0	nontarget	5	1401805	c	0	24.0	n/a	n/a	6
1404.121	0.0	nontarget	5	1404121	m	0	36.0	n/a	n/a	6
1406.638	0.0	nontarget	5	1406638	ä	0	48.0	n/a	n/a	6
1408.904	0.0	nontarget	5	1408904	n	0	33.0	n/a	n/a	6
1410.888	0.0	nontarget	5	1410888	x	0	16.0	n/a	n/a	6
1413.088	0.0	nontarget	5	1413088	c	0	29.0	n/a	n/a	6
1415.054	0.0	nontarget	5	1415054	a	0	15.0	n/a	n/a	6
1417.504	0.0	nontarget	5	1417504	n	0	44.0	n/a	n/a	6
1419.921	0.0	nontarget	5	1419921	y	0	42.0	n/a	n/a	6
1421.987	0.0	nontarget	5	1421987	s	0	21.0	n/a	n/a	6
1424.12	0.0	nontarget	5	1424120	r	0	25.0	n/a	n/a	6
1426.454	0.0	nontarget	5	1426454	o	0	37.0	n/a	n/a	6
1428.437	0.0	nontarget	5	1428437	w	0	16.0	n/a	n/a	6
1430.637	0.0	nontarget	5	1430637	ü	0	29.0	n/a	n/a	6
1433.037	0.0	nontarget	5	1433037	j	0	41.0	n/a	n/a	6
1435.587	0.0	target	6	1435587	c	1	50.0	1	0.4258615	6
1435.937	0.5	BAD keypress	2	1435937	n/a	n/a	n/a	n/a	n/a	n/a
1436.187	0.0	keypress	4	1436187	n/a	n/a	n/a	n/a	n/a	n/a
1437.853	0.0	nontarget	5	1437853	n	0	41.0	n/a	n/a	6
1439.936	0.0	nontarget	5	1439936	o	0	22.0	n/a	n/a	6
1442.486	0.0	nontarget	5	1442486	ß	0	50.0	n/a	n/a	6
1444.703	0.0	nontarget	5	1444703	l	0	30.0	n/a	n/a	6
1446.903	0.0	nontarget	5	1446903	z	0	29.0	n/a	n/a	6
1449.086	0.0	nontarget	5	1449086	h	0	28.0	n/a	n/a	6
1451.186	0.0	nontarget	5	1451186	v	0	23.0	n/a	n/a	6
1453.219	0.0	nontarget	5	1453219	d	0	19.0	n/a	n/a	6
1455.169	0.0	nontarget	5	1455169	a	0	14.0	n/a	n/a	6
1457.386	0.0	nontarget	5	1457386	s	0	30.0	n/a	n/a	6
1459.885	0.0	target	6	1459885	w	1	47.0	1	0.4613127	6
1460.269	0.5	BAD keypress	2	1460269	n/a	n/a	n/a	n/a	n/a	n/a
1460.519	0.0	keypress	4	1460519	n/a	n/a	n/a	n/a	n/a	n/a
1462.119	0.0	nontarget	5	1462119	l	0	37.0	n/a	n/a	6
1464.202	0.0	nontarget	5	1464202	w	0	22.0	n/a	n/a	6
1466.535	0.0	nontarget	5	1466535	y	0	37.0	n/a	n/a	6
1469.002	0.0	target	6	1469002	g	1	45.0	1	0.4483072	6
1469.385	0.5	BAD keypress	2	1469385	n/a	n/a	n/a	n/a	n/a	n/a
1469.635	0.0	keypress	4	1469635	n/a	n/a	n/a	n/a	n/a	n/a
1470.868	0.0	nontarget	5	1470868	d	0	15.0	n/a	n/a	6
1473.035	0.0	nontarget	5	1473035	p	0	27.0	n/a	n/a	6
1475.035	0.0	nontarget	5	1475035	n	0	17.0	n/a	n/a	6
1477.385	0.0	target	6	1477385	f	1	38.0	1	0.4489038	6
1477.718	0.5	BAD keypress	2	1477718	n/a	n/a	n/a	n/a	n/a	n/a
1477.968	0.0	keypress	4	1477968	n/a	n/a	n/a	n/a	n/a	n/a
1479.201	0.0	nontarget	5	1479201	ß	0	15.0	n/a	n/a	6
1481.718	0.0	target	6	1481718	i	1	48.0	1	0.4194712	6
1482.051	0.5	BAD keypress	2	1482051	n/a	n/a	n/a	n/a	n/a	n/a
1482.301	0.0	keypress	4	1482301	n/a	n/a	n/a	n/a	n/a	n/a
1483.918	0.0	nontarget	5	1483918	ä	0	38.0	n/a	n/a	6
1486.034	0.0	nontarget	5	1486034	y	0	24.0	n/a	n/a	6
1488.451	0.0	nontarget	5	1488451	h	0	42.0	n/a	n/a	6
1491.001	0.0	nontarget	5	1491001	c	0	50.0	n/a	n/a	6
1493.051	0.0	nontarget	5	1493051	r	0	20.0	n/a	n/a	6
1495.334	0.0	nontarget	5	1495334	e	0	34.0	n/a	n/a	6
1497.317	0.0	nontarget	5	1497317	u	0	16.0	n/a	n/a	6
1499.534	0.0	nontarget	5	1499534	n	0	30.0	n/a	n/a	6
1501.5	0.0	nontarget	5	1501500	i	0	15.0	n/a	n/a	6
1503.584	0.0	nontarget	5	1503584	e	0	22.0	n/a	n/a	6
1506.05	0.0	target	6	1506050	n	1	45.0	1	0.4056021	6
1506.35	0.5	BAD keypress	2	1506350	n/a	n/a	n/a	n/a	n/a	n/a
1506.6	0.0	keypress	4	1506600	n/a	n/a	n/a	n/a	n/a	n/a
1508.05	0.0	target	6	1508050	ä	1	27.0	1	0.4374737	6
1508.4	0.5	BAD keypress	2	1508400	n/a	n/a	n/a	n/a	n/a	n/a
1508.65	0.0	keypress	4	1508650	n/a	n/a	n/a	n/a	n/a	n/a
1510.017	0.0	target	6	1510017	h	1	23.0	1	0.4227747	6
1510.35	0.5	BAD keypress	2	1510350	n/a	n/a	n/a	n/a	n/a	n/a
1510.6	0.0	keypress	4	1510600	n/a	n/a	n/a	n/a	n/a	n/a
1512.266	0.0	nontarget	5	1512266	q	0	40.0	n/a	n/a	6
1514.75	0.0	nontarget	5	1514750	z	0	46.0	n/a	n/a	6
1516.716	0.0	nontarget	5	1516716	n	0	15.0	n/a	n/a	6
1518.916	0.0	nontarget	5	1518916	j	0	29.0	n/a	n/a	6
1520.899	0.0	nontarget	5	1520899	s	0	16.0	n/a	n/a	6
1523.149	0.0	nontarget	5	1523149	r	0	32.0	n/a	n/a	6
1525.433	0.0	target	6	1525433	d	1	34.0	1	0.4297565	6
1525.799	0.5	BAD keypress	2	1525799	n/a	n/a	n/a	n/a	n/a	n/a
1526.049	0.0	keypress	4	1526049	n/a	n/a	n/a	n/a	n/a	n/a
1527.799	0.0	nontarget	5	1527799	q	0	46.0	n/a	n/a	6
1530.216	0.0	nontarget	5	1530216	v	0	42.0	n/a	n/a	6
1532.749	0.0	target	6	1532749	p	1	49.0	1	0.4089069	6
1533.082	0.5	BAD keypress	2	1533082	n/a	n/a	n/a	n/a	n/a	n/a
1533.332	0.0	keypress	4	1533332	n/a	n/a	n/a	n/a	n/a	n/a
1534.666	0.0	target	6	1534666	z	1	21.0	1	0.4442976	6
1535.032	0.5	BAD keypress	2	1535032	n/a	n/a	n/a	n/a	n/a	n/a
1535.282	0.0	keypress	4	1535282	n/a	n/a	n/a	n/a	n/a	n/a
1536.565	0.0	nontarget	5	1536565	j	0	18.0	n/a	n/a	6
1538.782	0.0	nontarget	5	1538782	o	0	30.0	n/a	n/a	6
1540.849	0.0	target	6	1540849	j	1	21.0	1	0.4688046	6
1541.215	0.5	BAD keypress	2	1541215	n/a	n/a	n/a	n/a	n/a	n/a
1541.465	0.0	keypress	4	1541465	n/a	n/a	n/a	n/a	n/a	n/a
1542.715	0.0	nontarget	5	1542715	k	0	16.0	n/a	n/a	6
1544.698	0.0	target	6	1544698	t	1	16.0	1	0.4106934	6
1545.015	0.5	BAD keypress	2	1545015	n/a	n/a	n/a	n/a	n/a	n/a
1545.265	0.0	keypress	4	1545265	n/a	n/a	n/a	n/a	n/a	n/a
1546.365	183.7090000000001	BAD_break	3	1546365	n/a	n/a	n/a	n/a	n/a	n/a
1730.324	0.5	BAD keypress	2	1730324	n/a	n/a	n/a	n/a	n/a	n/a
1730.574	0.0	keypress	4	1730574	n/a	n/a	n/a	n/a	n/a	n/a
1731.79	0.0	nontarget	5	1731790	p	0	15.0	n/a	n/a	7
1734.09	0.0	target	6	1734090	k	1	35.0	1	0.4622879	7
1734.473	0.5	BAD keypress	2	1734473	n/a	n/a	n/a	n/a	n/a	n/a
1734.723	0.0	keypress	4	1734723	n/a	n/a	n/a	n/a	n/a	n/a
1736.49	0.0	nontarget	5	1736490	n	0	47.0	n/a	n/a	7
1738.79	0.0	nontarget	5	1738790	m	0	35.0	n/a	n/a	7
1740.773	0.0	target	6	1740773	v	1	16.0	1	0.4827701	7
1741.14	0.5	BAD keypress	2	1741140	n/a	n/a	n/a	n/a	n/a	n/a
1741.39	0.0	keypress	4	1741390	n/a	n/a	n/a	n/a	n/a	n/a
1742.99	0.0	target	6	1742990	h	1	37.0	1	0.4420526	7
1743.356	0.5	BAD keypress	2	1743356	n/a	n/a	n/a	n/a	n/a	n/a
1743.606	0.0	keypress	4	1743606	n/a	n/a	n/a	n/a	n/a	n/a
1745.156	0.0	nontarget	5	1745156	ö	0	34.0	n/a	n/a	7
1747.556	0.0	nontarget	5	1747556	t	0	41.0	n/a	n/a	7
1749.656	0.0	target	6	1749656	u	1	23.0	1	0.3992093	7
1749.956	0.5	BAD keypress	2	1749956	n/a	n/a	n/a	n/a	n/a	n/a
1750.206	0.0	keypress	4	1750206	n/a	n/a	n/a	n/a	n/a	n/a
1751.739	0.0	nontarget	5	1751739	l	0	33.0	n/a	n/a	7
1754.289	0.0	nontarget	5	1754289	y	0	50.0	n/a	n/a	7
1756.789	0.0	target	6	1756789	v	1	47.0	1	0.4017238	7
1757.089	0.5	BAD keypress	2	1757089	n/a	n/a	n/a	n/a	n/a	n/a
1757.339	0.0	keypress	4	1757339	n/a	n/a	n/a	n/a	n/a	n/a
1758.889	0.0	nontarget	5	1758889	ß	0	34.0	n/a	n/a	7
1761.372	0.0	nontarget	5	1761372	p	0	46.0	n/a	n/a	7
1763.572	0.0	nontarget	5	1763572	h	0	29.0	n/a	n/a	7
1766.055	0.0	nontarget	5	1766055	j	0	46.0	n/a	n/a	7
1768.022	0.0	nontarget	5	1768022	ö	0	15.0	n/a	n/a	7
1770.005	0.0	nontarget	5	1770005	c	0	16.0	n/a	n/a	7
1771.955	0.0	nontarget	5	1771955	k	0	14.0	n/a	n/a	7
1774.505	0.0	nontarget	5	1774505	s	0	50.0	n/a	n/a	7
1776.755	0.0	nontarget	5	1776755	p	0	32.0	n/a	n/a	7
1779.271	0.0	nontarget	5	1779271	z	0	48.0	n/a	n/a	7
1781.655	0.0	nontarget	5	1781655	h	0	40.0	n/a	n/a	7
1783.771	0.0	nontarget	5	1783771	y	0	24.0	n/a	n/a	7
1786.254	0.0	target	6	1786254	c	1	46.0	1	0.4382932	7
1786.621	0.5	BAD keypress	2	1786621	n/a	n/a	n/a	n/a	n/a	n/a
1786.871	0.0	keypress	4	1786871	n/a	n/a	n/a	n/a	n/a	n/a
1788.471	0.0	nontarget	5	1788471	ä	0	37.0	n/a	n/a	7
1790.521	0.0	nontarget	5	1790521	e	0	20.0	n/a	n/a	7
1792.637	0.0	target	6	1792637	v	1	24.0	1	0.4709048	7
1793.004	0.5	BAD keypress	2	1793004	n/a	n/a	n/a	n/a	n/a	n/a
1793.254	0.0	keypress	4	1793254	n/a	n/a	n/a	n/a	n/a	n/a
1795.004	0.0	nontarget	5	1795004	u	0	45.0	n/a	n/a	7
1797.471	0.0	nontarget	5	1797471	v	0	45.0	n/a	n/a	7
1799.487	0.0	nontarget	5	1799487	x	0	18.0	n/a	n/a	7
1801.804	0.0	nontarget	5	1801804	l	0	36.0	n/a	n/a	7
1803.87	0.0	nontarget	5	1803870	ä	0	21.0	n/a	n/a	7
1806.353	0.0	nontarget	5	1806353	c	0	46.0	n/a	n/a	7
1808.57	0.0	nontarget	5	1808570	u	0	30.0	n/a	n/a	7
1810.853	0.0	nontarget	5	1810853	i	0	34.0	n/a	n/a	7
1813.403	0.0	nontarget	5	1813403	f	0	50.0	n/a	n/a	7
1815.453	0.0	nontarget	5	1815453	n	0	20.0	n/a	n/a	7
1817.436	0.0	nontarget	5	1817436	s	0	16.0	n/a	n/a	7
1819.803	0.0	nontarget	5	1819803	l	0	39.0	n/a	n/a	7
1822.169	0.0	nontarget	5	1822169	i	0	39.0	n/a	n/a	7
1824.269	0.0	nontarget	5	1824269	ü	0	23.0	n/a	n/a	7
1826.703	0.0	nontarget	5	1826703	t	0	43.0	n/a	n/a	7
1828.819	0.0	nontarget	5	1828819	ö	0	24.0	n/a	n/a	7
1831.202	0.0	nontarget	5	1831202	w	0	40.0	n/a	n/a	7
1833.269	0.0	nontarget	5	1833269	p	0	21.0	n/a	n/a	7
1835.752	0.0	target	6	1835752	b	1	46.0	1	0.457232	7
1836.119	0.5	BAD keypress	2	1836119	n/a	n/a	n/a	n/a	n/a	n/a
1836.369	0.0	keypress	4	1836369	n/a	n/a	n/a	n/a	n/a	n/a
1838.002	0.0	target	6	1838002	i	1	39.0	1	0.5112107	7
1838.419	0.5	BAD keypress	2	1838419	n/a	n/a	n/a	n/a	n/a	n/a
1838.669	0.0	keypress	4	1838669	n/a	n/a	n/a	n/a	n/a	n/a
1840.302	0.0	nontarget	5	1840302	ß	0	39.0	n/a	n/a	7
1842.452	0.0	nontarget	5	1842452	o	0	26.0	n/a	n/a	7
1844.652	0.0	nontarget	5	1844652	t	0	29.0	n/a	n/a	7
1847.152	0.0	nontarget	5	1847152	h	0	47.0	n/a	n/a	7
1849.518	0.0	nontarget	5	1849518	ä	0	39.0	n/a	n/a	7
1851.485	0.0	nontarget	5	1851485	u	0	15.0	n/a	n/a	7
1853.768	0.0	nontarget	5	1853768	p	0	34.0	n/a	n/a	7
1855.785	0.0	nontarget	5	1855785	q	0	18.0	n/a	n/a	7
1858.201	0.0	nontarget	5	1858201	z	0	42.0	n/a	n/a	7
1860.318	0.0	nontarget	5	1860318	ß	0	24.0	n/a	n/a	7
1862.351	0.0	nontarget	5	1862351	d	0	19.0	n/a	n/a	7
1864.834	0.0	nontarget	5	1864834	w	0	46.0	n/a	n/a	7
1866.967	0.0	target	6	1866967	r	1	25.0	1	0.5037467	7
1867.351	0.5	BAD keypress	2	1867351	n/a	n/a	n/a	n/a	n/a	n/a
1867.601	0.0	keypress	4	1867601	n/a	n/a	n/a	n/a	n/a	n/a
1869.101	0.0	nontarget	5	1869101	e	0	31.0	n/a	n/a	7
1871.451	0.0	nontarget	5	1871451	b	0	38.0	n/a	n/a	7
1873.967	0.0	nontarget	5	1873967	z	0	48.0	n/a	n/a	7
1875.917	0.0	nontarget	5	1875917	a	0	14.0	n/a	n/a	7
1878.317	0.0	nontarget	5	1878317	c	0	41.0	n/a	n/a	7
1879.417	120.77800000000002	BAD_break	3	1879417	n/a	n/a	n/a	n/a	n/a	n/a
2000.695	0.0	nontarget	5	2000695	t	0	50.0	n/a	n/a	8
2002.761	0.0	nontarget	5	2002761	v	0	21.0	n/a	n/a	8
2005.095	0.0	nontarget	5	2005095	s	0	37.0	n/a	n/a	8
2007.478	0.0	nontarget	5	2007478	i	0	40.0	n/a	n/a	8
2009.678	0.0	nontarget	5	2009678	l	0	29.0	n/a	n/a	8
2011.994	0.0	nontarget	5	2011994	o	0	36.0	n/a	n/a	8
2014.111	0.0	nontarget	5	2014111	h	0	24.0	n/a	n/a	8
2016.411	0.0	nontarget	5	2016411	g	0	35.0	n/a	n/a	8
2018.577	0.0	nontarget	5	2018577	r	0	27.0	n/a	n/a	8
2020.677	0.0	nontarget	5	2020677	u	0	23.0	n/a	n/a	8
2022.727	0.0	nontarget	5	2022727	t	0	20.0	n/a	n/a	8
2024.844	0.0	nontarget	5	2024844	c	0	24.0	n/a	n/a	8
2027.31	0.0	nontarget	5	2027310	w	0	45.0	n/a	n/a	8
2029.31	0.0	nontarget	5	2029310	n	0	17.0	n/a	n/a	8
2031.477	0.0	nontarget	5	2031477	g	0	27.0	n/a	n/a	8
2033.943	0.0	nontarget	5	2033943	a	0	45.0	n/a	n/a	8
2036.127	0.0	nontarget	5	2036127	j	0	28.0	n/a	n/a	8
2038.093	0.0	nontarget	5	2038093	z	0	15.0	n/a	n/a	8
2040.626	0.0	target	6	2040626	s	1	49.0	1	0.4491449	8
2041.01	0.5	BAD keypress	2	2041010	n/a	n/a	n/a	n/a	n/a	n/a
2041.26	0.0	keypress	4	2041260	n/a	n/a	n/a	n/a	n/a	n/a
2042.893	0.0	nontarget	5	2042893	n	0	39.0	n/a	n/a	8
2045.443	0.0	nontarget	5	2045443	b	0	50.0	n/a	n/a	8
2047.459	0.0	nontarget	5	2047459	ö	0	18.0	n/a	n/a	8
2049.893	0.0	nontarget	5	2049893	m	0	43.0	n/a	n/a	8
2052.343	0.0	nontarget	5	2052343	f	0	44.0	n/a	n/a	8
2054.292	0.0	nontarget	5	2054292	n	0	14.0	n/a	n/a	8
2056.709	0.0	nontarget	5	2056709	v	0	42.0	n/a	n/a	8
2058.826	0.0	nontarget	5	2058826	j	0	24.0	n/a	n/a	8
2060.942	0.0	target	6	2060942	a	1	24.0	1	0.4998284	8
2061.359	0.5	BAD keypress	2	2061359	n/a	n/a	n/a	n/a	n/a	n/a
2061.609	0.0	keypress	4	2061609	n/a	n/a	n/a	n/a	n/a	n/a
2063.109	0.0	target	6	2063109	j	1	31.0	1	0.5892536	8
2063.576	0.5	BAD keypress	2	2063576	n/a	n/a	n/a	n/a	n/a	n/a
2063.826	0.0	keypress	4	2063826	n/a	n/a	n/a	n/a	n/a	n/a
2065.275	0.0	nontarget	5	2065275	v	0	28.0	n/a	n/a	8
2067.475	0.0	nontarget	5	2067475	u	0	29.0	n/a	n/a	8
2069.875	0.0	nontarget	5	2069875	d	0	41.0	n/a	n/a	8
2072.325	0.0	nontarget	5	2072325	g	0	44.0	n/a	n/a	8
2074.492	0.0	target	6	2074492	y	1	27.0	1	0.5017563	8
2074.858	0.5	BAD keypress	2	2074858	n/a	n/a	n/a	n/a	n/a	n/a
2075.108	0.0	keypress	4	2075108	n/a	n/a	n/a	n/a	n/a	n/a
2076.775	0.0	nontarget	5	2076775	x	0	41.0	n/a	n/a	8
2079.025	0.0	nontarget	5	2079025	h	0	32.0	n/a	n/a	8
2081.025	0.0	nontarget	5	2081025	p	0	17.0	n/a	n/a	8
2083.408	0.0	nontarget	5	2083408	v	0	40.0	n/a	n/a	8
2085.508	0.0	nontarget	5	2085508	x	0	23.0	n/a	n/a	8
2087.641	0.0	target	6	2087641	o	1	25.0	1	0.5833864	8
2088.108	0.5	BAD keypress	2	2088108	n/a	n/a	n/a	n/a	n/a	n/a
2088.358	0.0	keypress	4	2088358	n/a	n/a	n/a	n/a	n/a	n/a
2090.058	0.0	nontarget	5	2090058	ä	0	43.0	n/a	n/a	8
2092.007	0.0	nontarget	5	2092007	b	0	14.0	n/a	n/a	8
2094.174	0.0	nontarget	5	2094174	k	0	27.0	n/a	n/a	8
2096.607	0.0	nontarget	5	2096607	e	0	43.0	n/a	n/a	8
2098.641	0.0	nontarget	5	2098641	f	0	19.0	n/a	n/a	8
2100.724	0.0	target	6	2100724	a	1	22.0	0	n/a	8
2103.624	0.0	nontarget	5	2103624	c	0	40.0	n/a	n/a	8
2105.874	0.0	nontarget	5	2105874	p	0	32.0	n/a	n/a	8
2108.123	0.0	nontarget	5	2108123	ö	0	32.0	n/a	n/a	8
2110.307	0.0	nontarget	5	2110307	ä	0	28.0	n/a	n/a	8
2112.507	0.0	nontarget	5	2112507	z	0	29.0	n/a	n/a	8
2114.723	0.0	nontarget	5	2114723	o	0	30.0	n/a	n/a	8
2116.79	0.0	nontarget	5	2116790	g	0	21.0	n/a	n/a	8
2118.756	0.0	target	6	2118756	g	1	15.0	0	n/a	8
2121.439	0.0	nontarget	5	2121439	p	0	27.0	n/a	n/a	8
2123.439	0.0	nontarget	5	2123439	q	0	17.0	n/a	n/a	8
2125.656	0.0	nontarget	5	2125656	x	0	30.0	n/a	n/a	8
2127.656	0.0	target	6	2127656	z	1	17.0	1	0.5177886	8
2128.056	0.5	BAD keypress	2	2128056	n/a	n/a	n/a	n/a	n/a	n/a
2128.306	0.0	keypress	4	2128306	n/a	n/a	n/a	n/a	n/a	n/a
2129.639	0.0	target	6	2129639	q	1	21.0	1	0.4383807	8
2129.973	0.5	BAD keypress	2	2129973	n/a	n/a	n/a	n/a	n/a	n/a
2130.223	0.0	keypress	4	2130223	n/a	n/a	n/a	n/a	n/a	n/a
2132.006	0.0	nontarget	5	2132006	s	0	48.0	n/a	n/a	8
2134.006	0.0	nontarget	5	2134006	u	0	17.0	n/a	n/a	8
2136.439	0.0	target	6	2136439	i	1	43.0	1	0.4222867	8
2136.772	0.5	BAD keypress	2	2136772	n/a	n/a	n/a	n/a	n/a	n/a
2137.022	0.0	keypress	4	2137022	n/a	n/a	n/a	n/a	n/a	n/a
2138.739	0.0	nontarget	5	2138739	ä	0	44.0	n/a	n/a	8
2141.089	0.0	target	6	2141089	d	1	38.0	1	0.572084	8
2141.555	0.5	BAD keypress	2	2141555	n/a	n/a	n/a	n/a	n/a	n/a
2141.805	0.0	keypress	4	2141805	n/a	n/a	n/a	n/a	n/a	n/a
2143.472	0.0	nontarget	5	2143472	r	0	41.0	n/a	n/a	8
2145.555	0.0	target	6	2145555	f	1	22.0	1	0.5374098	8
2145.972	0.5	BAD keypress	2	2145972	n/a	n/a	n/a	n/a	n/a	n/a
2146.222	0.0	keypress	4	2146222	n/a	n/a	n/a	n/a	n/a	n/a
2147.322	45.01399999999967	BAD_break	3	2147322	n/a	n/a	n/a	n/a	n/a	n/a
2192.836	0.0	nontarget	5	2192836	d	0	35.0	n/a	n/a	9
2195.37	0.0	target	6	2195370	l	1	49.0	1	0.4635611	9
2195.786	0.5	BAD keypress	2	2195786	n/a	n/a	n/a	n/a	n/a	n/a
2196.036	0.0	keypress	4	2196036	n/a	n/a	n/a	n/a	n/a	n/a
2197.636	0.0	nontarget	5	2197636	c	0	37.0	n/a	n/a	9
2199.703	0.0	nontarget	5	2199703	ä	0	21.0	n/a	n/a	9
2201.786	0.0	nontarget	5	2201786	j	0	22.0	n/a	n/a	9
2204.036	0.0	nontarget	5	2204036	ß	0	32.0	n/a	n/a	9
2206.086	0.0	nontarget	5	2206086	s	0	20.0	n/a	n/a	9
2208.419	0.0	target	6	2208419	h	1	37.0	1	0.4213033	9
2208.902	0.5	BAD keypress	2	2208902	n/a	n/a	n/a	n/a	n/a	n/a
2209.152	0.0	keypress	4	2209152	n/a	n/a	n/a	n/a	n/a	n/a
2210.719	0.0	target	6	2210719	l	1	35.0	1	0.4412325	9
2211.069	0.5	BAD keypress	2	2211069	n/a	n/a	n/a	n/a	n/a	n/a
2211.319	0.0	keypress	4	2211319	n/a	n/a	n/a	n/a	n/a	n/a
2212.735	0.0	nontarget	5	2212735	w	0	26.0	0	0.4724377	9
2212.735	1.0	BAD incorrect	1	2212735	w	0	26.0	0	0.4724377	9
2213.086	0.5	BAD keypress	2	2213086	n/a	n/a	n/a	n/a	n/a	n/a
2213.336	0.0	keypress	4	2213336	n/a	n/a	n/a	n/a	n/a	n/a
2215.085	0.0	nontarget	5	2215085	l	0	15.0	n/a	n/a	9
2217.085	0.0	nontarget	5	2217085	z	0	17.0	n/a	n/a	9
2219.102	0.0	nontarget	5	2219102	d	0	18.0	n/a	n/a	9
2221.435	0.0	nontarget	5	2221435	j	0	37.0	n/a	n/a	9
2223.435	0.0	nontarget	5	2223435	e	0	17.0	n/a	n/a	9
2225.785	0.0	nontarget	5	2225785	x	0	38.0	n/a	n/a	9
2228.185	0.0	nontarget	5	2228185	q	0	41.0	n/a	n/a	9
2230.635	0.0	nontarget	5	2230635	h	0	44.0	n/a	n/a	9
2233.051	0.0	nontarget	5	2233051	c	0	42.0	n/a	n/a	9
2235.385	0.0	nontarget	5	2235385	b	0	37.0	n/a	n/a	9
2237.718	0.0	target	6	2237718	t	1	37.0	1	0.4165508	9
2238.034	0.5	BAD keypress	2	2238034	n/a	n/a	n/a	n/a	n/a	n/a
2238.284	0.0	keypress	4	2238284	n/a	n/a	n/a	n/a	n/a	n/a
2240.018	0.0	nontarget	5	2240018	z	0	45.0	n/a	n/a	9
2242.551	0.0	nontarget	5	2242551	y	0	49.0	n/a	n/a	9
2244.617	0.0	nontarget	5	2244617	r	0	21.0	n/a	n/a	9
2246.734	0.0	target	6	2246734	b	1	24.0	1	0.455659	9
2247.101	0.5	BAD keypress	2	2247101	n/a	n/a	n/a	n/a	n/a	n/a
2247.351	0.0	keypress	4	2247351	n/a	n/a	n/a	n/a	n/a	n/a
2248.545	0.5	BAD keypress	2	2248545	n/a	n/a	n/a	n/a	n/a	n/a
2248.784	0.0	nontarget	5	2248784	e	0	27.0	0	-0.6183452	9
2248.784	1.0	BAD incorrect	1	2248784	e	0	27.0	0	-0.6183452	9
2248.795	0.0	keypress	4	2248795	n/a	n/a	n/a	n/a	n/a	n/a
2250.717	0.0	nontarget	5	2250717	h	0	25.0	n/a	n/a	9
2253.034	0.0	nontarget	5	2253034	w	0	36.0	n/a	n/a	9
2255.35	0.0	nontarget	5	2255350	r	0	36.0	n/a	n/a	9
2257.434	0.0	nontarget	5	2257434	x	0	22.0	n/a	n/a	9
2259.4	0.0	nontarget	5	2259400	n	0	15.0	n/a	n/a	9
2261.85	0.0	nontarget	5	2261850	e	0	44.0	n/a	n/a	9
2264.35	0.0	nontarget	5	2264350	i	0	47.0	n/a	n/a	9
2266.833	0.0	nontarget	5	2266833	y	0	46.0	n/a	n/a	9
2269.316	0.0	nontarget	5	2269316	f	0	46.0	n/a	n/a	9
2271.266	0.0	nontarget	5	2271266	w	0	14.0	n/a	n/a	9
2273.333	0.0	nontarget	5	2273333	v	0	21.0	n/a	n/a	9
2275.333	0.0	target	6	2275333	m	1	17.0	1	0.4310579	9
2275.699	0.5	BAD keypress	2	2275699	n/a	n/a	n/a	n/a	n/a	n/a
2275.949	0.0	keypress	4	2275949	n/a	n/a	n/a	n/a	n/a	n/a
2277.266	0.0	nontarget	5	2277266	ä	0	20.0	n/a	n/a	9
2279.816	0.0	nontarget	5	2279816	s	0	50.0	n/a	n/a	9
2282.249	0.0	nontarget	5	2282249	q	0	43.0	n/a	n/a	9
2284.382	0.0	nontarget	5	2284382	ü	0	25.0	n/a	n/a	9
2286.466	0.0	nontarget	5	2286466	p	0	22.0	n/a	n/a	9
2288.482	0.0	nontarget	5	2288482	o	0	18.0	n/a	n/a	9
2290.432	0.0	target	6	2290432	z	1	14.0	1	0.4827795	9
2290.815	0.5	BAD keypress	2	2290815	n/a	n/a	n/a	n/a	n/a	n/a
2291.065	0.0	keypress	4	2291065	n/a	n/a	n/a	n/a	n/a	n/a
2292.882	0.0	target	6	2292882	c	1	50.0	1	0.4324618	9
2293.249	0.5	BAD keypress	2	2293249	n/a	n/a	n/a	n/a	n/a	n/a
2293.499	0.0	keypress	4	2293499	n/a	n/a	n/a	n/a	n/a	n/a
2294.882	0.0	nontarget	5	2294882	m	0	24.0	n/a	n/a	9
2297.215	0.0	nontarget	5	2297215	u	0	37.0	n/a	n/a	9
2299.232	0.0	nontarget	5	2299232	s	0	18.0	n/a	n/a	9
2301.582	0.0	nontarget	5	2301582	h	0	38.0	n/a	n/a	9
2303.831	0.0	nontarget	5	2303831	f	0	32.0	n/a	n/a	9
2306.048	0.0	target	6	2306048	o	1	30.0	1	0.4176808	9
2306.398	0.5	BAD keypress	2	2306398	n/a	n/a	n/a	n/a	n/a	n/a
2306.648	0.0	keypress	4	2306648	n/a	n/a	n/a	n/a	n/a	n/a
2308.365	0.0	nontarget	5	2308365	s	0	44.0	n/a	n/a	9
2310.631	0.0	nontarget	5	2310631	ß	0	33.0	n/a	n/a	9
2312.898	0.0	target	6	2312898	h	1	33.0	1	0.4155025	9
2313.264	0.5	BAD keypress	2	2313264	n/a	n/a	n/a	n/a	n/a	n/a
2313.514	0.0	keypress	4	2313514	n/a	n/a	n/a	n/a	n/a	n/a
2314.998	0.0	nontarget	5	2314998	w	0	30.0	n/a	n/a	9
2316.964	0.0	target	6	2316964	m	1	15.0	1	0.4126643	9
2317.298	0.5	BAD keypress	2	2317298	n/a	n/a	n/a	n/a	n/a	n/a
2317.548	0.0	keypress	4	2317548	n/a	n/a	n/a	n/a	n/a	n/a
2319.231	0.0	nontarget	5	2319231	p	0	42.0	n/a	n/a	9
2321.497	0.0	target	6	2321497	w	1	33.0	1	0.4232494	9
2321.881	0.5	BAD keypress	2	2321881	n/a	n/a	n/a	n/a	n/a	n/a
2322.131	0.0	keypress	4	2322131	n/a	n/a	n/a	n/a	n/a	n/a
2323.597	0.0	nontarget	5	2323597	v	0	29.0	n/a	n/a	9
2325.964	0.0	nontarget	5	2325964	q	0	39.0	n/a	n/a	9
2328.247	0.0	nontarget	5	2328247	x	0	34.0	n/a	n/a	9
2330.197	0.0	nontarget	5	2330197	m	0	14.0	n/a	n/a	9
2332.563	0.0	nontarget	5	2332563	f	0	39.0	n/a	n/a	9
2334.58	0.0	target	6	2334580	y	1	18.0	1	0.4276039	9
2334.947	0.5	BAD keypress	2	2334947	n/a	n/a	n/a	n/a	n/a	n/a
2335.197	0.0	keypress	4	2335197	n/a	n/a	n/a	n/a	n/a	n/a
2336.547	0.0	target	6	2336547	k	1	22.0	1	0.4129577	9
2336.93	0.5	BAD keypress	2	2336930	n/a	n/a	n/a	n/a	n/a	n/a
2337.18	0.0	keypress	4	2337180	n/a	n/a	n/a	n/a	n/a	n/a
2338.28	26.032000000000156	BAD_break	3	2338280	n/a	n/a	n/a	n/a	n/a	n/a
2364.812	0.0	target	6	2364812	v	1	34.0	1	0.3856236	10
2365.096	0.5	BAD keypress	2	2365096	n/a	n/a	n/a	n/a	n/a	n/a
2365.346	0.0	keypress	4	2365346	n/a	n/a	n/a	n/a	n/a	n/a
2366.595	0.0	nontarget	5	2366595	b	0	15.0	n/a	n/a	10
2369.079	0.0	nontarget	5	2369079	q	0	46.0	n/a	n/a	10
2371.262	0.0	nontarget	5	2371262	g	0	28.0	n/a	n/a	10
2373.345	0.0	nontarget	5	2373345	j	0	22.0	n/a	n/a	10
2375.445	0.0	nontarget	5	2375445	v	0	23.0	n/a	n/a	10
2377.478	0.0	nontarget	5	2377478	k	0	19.0	n/a	n/a	10
2380.028	0.0	target	6	2380028	q	1	50.0	1	0.4165411	10
2380.361	0.5	BAD keypress	2	2380361	n/a	n/a	n/a	n/a	n/a	n/a
2380.611	0.0	keypress	4	2380611	n/a	n/a	n/a	n/a	n/a	n/a
2381.345	0.5	BAD keypress	2	2381345	n/a	n/a	n/a	n/a	n/a	n/a
2381.595	0.0	keypress	4	2381595	n/a	n/a	n/a	n/a	n/a	n/a
2381.995	0.0	nontarget	5	2381995	r	0	24.0	n/a	n/a	10
2384.195	0.0	nontarget	5	2384195	w	0	29.0	n/a	n/a	10
2386.611	0.0	target	6	2386611	e	1	42.0	1	0.4090581	10
2386.928	0.5	BAD keypress	2	2386928	n/a	n/a	n/a	n/a	n/a	n/a
2387.178	0.0	keypress	4	2387178	n/a	n/a	n/a	n/a	n/a	n/a
2388.944	0.0	target	6	2388944	j	1	47.0	1	0.4757047	10
2389.378	0.5	BAD keypress	2	2389378	n/a	n/a	n/a	n/a	n/a	n/a
2389.628	0.0	keypress	4	2389628	n/a	n/a	n/a	n/a	n/a	n/a
2391.328	0.0	target	6	2391328	n	1	43.0	1	0.3483086	10
2391.644	0.5	BAD keypress	2	2391644	n/a	n/a	n/a	n/a	n/a	n/a
2391.894	0.0	keypress	4	2391894	n/a	n/a	n/a	n/a	n/a	n/a
2392.144	0.5	BAD keypress	2	2392144	n/a	n/a	n/a	n/a	n/a	n/a
2392.394	0.0	keypress	4	2392394	n/a	n/a	n/a	n/a	n/a	n/a
2393.611	0.0	nontarget	5	2393611	ü	0	44.0	n/a	n/a	10
2395.661	0.0	nontarget	5	2395661	r	0	20.0	n/a	n/a	10
2397.911	0.0	nontarget	5	2397911	v	0	32.0	n/a	n/a	10
2400.361	0.0	nontarget	5	2400361	x	0	44.0	n/a	n/a	10
2402.677	0.0	nontarget	5	2402677	b	0	36.0	n/a	n/a	10
2404.76	0.0	nontarget	5	2404760	g	0	22.0	n/a	n/a	10
2407.094	0.0	nontarget	5	2407094	d	0	37.0	n/a	n/a	10
2409.493	0.0	nontarget	5	2409493	m	0	41.0	n/a	n/a	10
2411.577	0.0	nontarget	5	2411577	h	0	22.0	n/a	n/a	10
2414.06	0.0	nontarget	5	2414060	y	0	46.0	n/a	n/a	10
2416.243	0.0	nontarget	5	2416243	x	0	28.0	n/a	n/a	10
2418.393	0.0	nontarget	5	2418393	b	0	26.0	n/a	n/a	10
2420.943	0.0	nontarget	5	2420943	ö	0	50.0	n/a	n/a	10
2423.06	0.0	target	6	2423060	g	1	24.0	1	0.4702343	10
2423.443	0.5	BAD keypress	2	2423443	n/a	n/a	n/a	n/a	n/a	n/a
2423.693	0.0	keypress	4	2423693	n/a	n/a	n/a	n/a	n/a	n/a
2424.909	0.0	target	6	2424909	e	1	14.0	1	0.4601662	10
2425.326	0.5	BAD keypress	2	2425326	n/a	n/a	n/a	n/a	n/a	n/a
2425.576	0.0	keypress	4	2425576	n/a	n/a	n/a	n/a	n/a	n/a
2427.026	0.0	nontarget	5	2427026	w	0	28.0	n/a	n/a	10
2429.309	0.0	nontarget	5	2429309	g	0	34.0	n/a	n/a	10
2431.576	0.0	nontarget	5	2431576	p	0	33.0	n/a	n/a	10
2433.926	0.0	nontarget	5	2433926	s	0	38.0	n/a	n/a	10
2436.326	0.0	nontarget	5	2436326	d	0	41.0	n/a	n/a	10
2438.309	0.0	nontarget	5	2438309	b	0	16.0	n/a	n/a	10
2440.625	0.0	nontarget	5	2440625	k	0	36.0	n/a	n/a	10
2443.125	0.0	target	6	2443125	a	1	47.0	1	0.4030809	10
2443.442	0.5	BAD keypress	2	2443442	n/a	n/a	n/a	n/a	n/a	n/a
2443.692	0.0	keypress	4	2443692	n/a	n/a	n/a	n/a	n/a	n/a
2445.009	0.0	nontarget	5	2445009	ö	0	20.0	n/a	n/a	10
2447.142	0.0	nontarget	5	2447142	f	0	25.0	n/a	n/a	10
2449.608	0.0	nontarget	5	2449608	ü	0	45.0	n/a	n/a	10
2451.908	0.0	nontarget	5	2451908	p	0	35.0	n/a	n/a	10
2454.058	0.0	nontarget	5	2454058	z	0	26.0	n/a	n/a	10
2456.375	0.0	nontarget	5	2456375	c	0	36.0	n/a	n/a	10
2458.791	0.0	nontarget	5	2458791	k	0	42.0	n/a	n/a	10
2461.141	0.0	nontarget	5	2461141	ß	0	38.0	n/a	n/a	10
2463.358	0.0	nontarget	5	2463358	z	0	30.0	n/a	n/a	10
2465.424	0.0	nontarget	5	2465424	q	0	21.0	n/a	n/a	10
2467.524	0.0	target	6	2467524	e	1	23.0	0	n/a	10
2470.241	0.0	nontarget	5	2470241	g	0	29.0	n/a	n/a	10
2472.357	0.0	target	6	2472357	g	1	24.0	1	0.4010259	10
2472.691	0.5	BAD keypress	2	2472691	n/a	n/a	n/a	n/a	n/a	n/a
2472.941	0.0	keypress	4	2472941	n/a	n/a	n/a	n/a	n/a	n/a
2474.391	0.0	target	6	2474391	b	1	28.0	1	0.4317094	10
2474.807	0.5	BAD keypress	2	2474807	n/a	n/a	n/a	n/a	n/a	n/a
2475.057	0.0	keypress	4	2475057	n/a	n/a	n/a	n/a	n/a	n/a
2476.84	0.0	nontarget	5	2476840	u	0	48.0	n/a	n/a	10
2479.157	0.0	nontarget	5	2479157	q	0	36.0	n/a	n/a	10
2481.657	0.0	nontarget	5	2481657	h	0	47.0	n/a	n/a	10
2484.073	0.0	nontarget	5	2484073	l	0	42.0	n/a	n/a	10
2486.407	0.0	nontarget	5	2486407	w	0	37.0	n/a	n/a	10
2488.773	0.0	nontarget	5	2488773	g	0	39.0	n/a	n/a	10
2490.84	0.0	nontarget	5	2490840	i	0	21.0	n/a	n/a	10
2493.306	0.0	nontarget	5	2493306	u	0	45.0	n/a	n/a	10
2495.406	0.0	nontarget	5	2495406	t	0	23.0	n/a	n/a	10
2497.956	0.0	nontarget	5	2497956	w	0	50.0	n/a	n/a	10
2500.139	0.0	target	6	2500139	p	1	28.0	1	0.4410337	10
2500.506	0.5	BAD keypress	2	2500506	n/a	n/a	n/a	n/a	n/a	n/a
2500.756	0.0	keypress	4	2500756	n/a	n/a	n/a	n/a	n/a	n/a
2502.289	0.0	target	6	2502289	v	1	33.0	1	0.4510844	10
2502.673	0.5	BAD keypress	2	2502673	n/a	n/a	n/a	n/a	n/a	n/a
2502.923	0.0	keypress	4	2502923	n/a	n/a	n/a	n/a	n/a	n/a
2504.439	0.0	nontarget	5	2504439	ü	0	32.0	n/a	n/a	10
2506.972	0.0	nontarget	5	2506972	f	0	49.0	n/a	n/a	10
2509.506	0.0	nontarget	5	2509506	i	0	49.0	n/a	n/a	10
2511.956	0.0	nontarget	5	2511956	b	0	44.0	n/a	n/a	10
2513.056	91.32900000000018	BAD_break	3	2513056	n/a	n/a	n/a	n/a	n/a	n/a
2604.885	0.0	target	6	2604885	n	1	31.0	1	0.3925946	11
2605.202	0.5	BAD keypress	2	2605202	n/a	n/a	n/a	n/a	n/a	n/a
2605.452	0.0	keypress	4	2605452	n/a	n/a	n/a	n/a	n/a	n/a
2607.201	0.0	nontarget	5	2607201	ß	0	45.0	n/a	n/a	11
2609.485	0.0	nontarget	5	2609485	q	0	34.0	n/a	n/a	11
2610.468	0.5	BAD keypress	2	2610468	n/a	n/a	n/a	n/a	n/a	n/a
2610.718	0.0	keypress	4	2610718	n/a	n/a	n/a	n/a	n/a	n/a
2611.518	0.0	target	6	2611518	l	1	19.0	1	0.4310911	11
2611.885	0.5	BAD keypress	2	2611885	n/a	n/a	n/a	n/a	n/a	n/a
2612.135	0.0	keypress	4	2612135	n/a	n/a	n/a	n/a	n/a	n/a
2613.651	0.0	nontarget	5	2613651	k	0	32.0	n/a	n/a	11
2616.168	0.0	target	6	2616168	e	1	48.0	1	0.3730218	11
2616.434	0.5	BAD keypress	2	2616434	n/a	n/a	n/a	n/a	n/a	n/a
2616.684	0.0	keypress	4	2616684	n/a	n/a	n/a	n/a	n/a	n/a
2618.001	0.0	nontarget	5	2618001	s	0	20.0	n/a	n/a	11
2620.434	0.0	nontarget	5	2620434	o	0	43.0	n/a	n/a	11
2622.801	0.0	nontarget	5	2622801	i	0	39.0	n/a	n/a	11
2625.317	0.0	target	6	2625317	ä	1	48.0	1	0.3908273	11
2625.617	0.5	BAD keypress	2	2625617	n/a	n/a	n/a	n/a	n/a	n/a
2625.867	0.0	keypress	4	2625867	n/a	n/a	n/a	n/a	n/a	n/a
2627.167	0.0	nontarget	5	2627167	j	0	19.0	n/a	n/a	11
2629.684	0.0	target	6	2629684	k	1	48.0	1	0.3920253	11
2630.034	0.5	BAD keypress	2	2630034	n/a	n/a	n/a	n/a	n/a	n/a
2630.284	0.0	keypress	4	2630284	n/a	n/a	n/a	n/a	n/a	n/a
2631.95	0.0	nontarget	5	2631950	v	0	41.0	n/a	n/a	11
2634.134	0.0	target	6	2634134	x	1	28.0	1	0.4698997	11
2634.5	0.5	BAD keypress	2	2634500	n/a	n/a	n/a	n/a	n/a	n/a
2634.75	0.0	keypress	4	2634750	n/a	n/a	n/a	n/a	n/a	n/a
2636.167	0.0	nontarget	5	2636167	y	0	26.0	n/a	n/a	11
2638.633	0.0	target	6	2638633	u	1	45.0	1	0.4018689	11
2639.067	0.5	BAD keypress	2	2639067	n/a	n/a	n/a	n/a	n/a	n/a
2639.317	0.0	keypress	4	2639317	n/a	n/a	n/a	n/a	n/a	n/a
2640.583	0.0	nontarget	5	2640583	o	0	17.0	n/a	n/a	11
2642.833	0.0	nontarget	5	2642833	k	0	32.0	n/a	n/a	11
2645.133	0.0	nontarget	5	2645133	ü	0	35.0	n/a	n/a	11
2647.483	0.0	nontarget	5	2647483	h	0	38.0	n/a	n/a	11
2649.666	0.0	nontarget	5	2649666	t	0	28.0	n/a	n/a	11
2651.899	0.0	target	6	2651899	t	1	31.0	1	0.4468271	11
2652.283	0.5	BAD keypress	2	2652283	n/a	n/a	n/a	n/a	n/a	n/a
2652.533	0.0	keypress	4	2652533	n/a	n/a	n/a	n/a	n/a	n/a
2653.799	0.0	nontarget	5	2653799	a	0	17.0	n/a	n/a	11
2655.799	0.0	nontarget	5	2655799	l	0	17.0	n/a	n/a	11
2657.932	0.0	nontarget	5	2657932	h	0	25.0	n/a	n/a	11
2660.216	0.0	nontarget	5	2660216	g	0	34.0	n/a	n/a	11
2662.682	0.0	nontarget	5	2662682	ü	0	45.0	n/a	n/a	11
2664.682	0.0	nontarget	5	2664682	d	0	17.0	n/a	n/a	11
2667.032	0.0	nontarget	5	2667032	t	0	38.0	n/a	n/a	11
2669.549	0.0	nontarget	5	2669549	j	0	48.0	n/a	n/a	11
2672.099	0.0	nontarget	5	2672099	l	0	50.0	n/a	n/a	11
2674.315	0.0	nontarget	5	2674315	s	0	30.0	n/a	n/a	11
2676.532	0.0	nontarget	5	2676532	m	0	30.0	n/a	n/a	11
2678.698	0.0	nontarget	5	2678698	f	0	27.0	n/a	n/a	11
2680.798	0.0	nontarget	5	2680798	g	0	23.0	n/a	n/a	11
2683.015	0.0	nontarget	5	2683015	v	0	30.0	n/a	n/a	11
2685.365	0.0	nontarget	5	2685365	q	0	38.0	n/a	n/a	11
2687.765	0.0	nontarget	5	2687765	ö	0	41.0	n/a	n/a	11
2689.731	0.0	nontarget	5	2689731	g	0	15.0	n/a	n/a	11
2692.081	0.0	nontarget	5	2692081	i	0	38.0	n/a	n/a	11
2694.498	0.0	target	6	2694498	r	1	42.0	1	0.4218872	11
2694.848	0.5	BAD keypress	2	2694848	n/a	n/a	n/a	n/a	n/a	n/a
2695.098	0.0	keypress	4	2695098	n/a	n/a	n/a	n/a	n/a	n/a
2696.714	0.0	nontarget	5	2696714	o	0	38.0	n/a	n/a	11
2698.764	0.0	nontarget	5	2698764	u	0	20.0	n/a	n/a	11
2700.947	0.0	nontarget	5	2700947	i	0	28.0	n/a	n/a	11
2703.18	0.0	target	6	2703180	x	1	31.0	1	0.4423339	11
2703.597	0.5	BAD keypress	2	2703597	n/a	n/a	n/a	n/a	n/a	n/a
2703.847	0.0	keypress	4	2703847	n/a	n/a	n/a	n/a	n/a	n/a
2705.33	0.0	nontarget	5	2705330	e	0	30.0	n/a	n/a	11
2707.547	0.0	nontarget	5	2707547	d	0	30.0	n/a	n/a	11
2709.88	0.0	nontarget	5	2709880	ß	0	37.0	n/a	n/a	11
2712.13	0.0	nontarget	5	2712130	s	0	32.0	n/a	n/a	11
2714.48	0.0	nontarget	5	2714480	f	0	38.0	n/a	n/a	11
2716.78	0.0	nontarget	5	2716780	ä	0	35.0	n/a	n/a	11
2719.163	0.0	nontarget	5	2719163	c	0	40.0	n/a	n/a	11
2721.496	0.0	target	6	2721496	x	1	37.0	1	0.445194	11
2721.88	0.5	BAD keypress	2	2721880	n/a	n/a	n/a	n/a	n/a	n/a
2722.13	0.0	keypress	4	2722130	n/a	n/a	n/a	n/a	n/a	n/a
2723.796	0.0	nontarget	5	2723796	i	0	41.0	n/a	n/a	11
2725.796	0.0	nontarget	5	2725796	b	0	17.0	n/a	n/a	11
2728.179	0.0	nontarget	5	2728179	o	0	40.0	n/a	n/a	11
2730.563	0.0	nontarget	5	2730563	z	0	40.0	n/a	n/a	11
2732.996	0.0	nontarget	5	2732996	j	0	43.0	n/a	n/a	11
2735.262	0.0	nontarget	5	2735262	r	0	33.0	n/a	n/a	11
2737.479	0.0	nontarget	5	2737479	k	0	30.0	n/a	n/a	11
2739.929	0.0	nontarget	5	2739929	e	0	44.0	n/a	n/a	11
2742.362	0.0	nontarget	5	2742362	x	0	43.0	n/a	n/a	11
2744.679	0.0	nontarget	5	2744679	w	0	36.0	n/a	n/a	11
2746.745	0.0	nontarget	5	2746745	m	0	21.0	n/a	n/a	11
2749.095	0.0	target	6	2749095	d	1	38.0	1	0.4285754	11
2749.462	0.5	BAD keypress	2	2749462	n/a	n/a	n/a	n/a	n/a	n/a
2749.712	0.0	keypress	4	2749712	n/a	n/a	n/a	n/a	n/a	n/a
2751.478	0.0	nontarget	5	2751478	c	0	47.0	n/a	n/a	11
2752.578	27.065999999999804	BAD_break	3	2752578	n/a	n/a	n/a	n/a	n/a	n/a
2780.144	0.0	nontarget	5	2780144	t	0	44.0	n/a	n/a	12
2782.56	0.0	nontarget	5	2782560	w	0	42.0	n/a	n/a	12
2784.944	0.0	target	6	2784944	ä	1	40.0	1	0.401764	12
2785.244	0.5	BAD keypress	2	2785244	n/a	n/a	n/a	n/a	n/a	n/a
2785.494	0.0	keypress	4	2785494	n/a	n/a	n/a	n/a	n/a	n/a
2787.193	0.0	nontarget	5	2787193	e	0	43.0	n/a	n/a	12
2789.66	0.0	target	6	2789660	q	1	45.0	1	0.4048997	12
2789.993	0.5	BAD keypress	2	2789993	n/a	n/a	n/a	n/a	n/a	n/a
2790.243	0.0	keypress	4	2790243	n/a	n/a	n/a	n/a	n/a	n/a
2791.91	0.0	nontarget	5	2791910	j	0	41.0	n/a	n/a	12
2794.276	0.0	nontarget	5	2794276	k	0	39.0	n/a	n/a	12
2796.326	0.0	nontarget	5	2796326	f	0	20.0	n/a	n/a	12
2798.31	0.0	nontarget	5	2798310	s	0	16.0	n/a	n/a	12
2800.26	0.0	nontarget	5	2800260	e	0	14.0	n/a	n/a	12
2802.476	0.0	target	6	2802476	x	1	30.0	1	0.4519381	12
2802.876	0.5	BAD keypress	2	2802876	n/a	n/a	n/a	n/a	n/a	n/a
2803.126	0.0	keypress	4	2803126	n/a	n/a	n/a	n/a	n/a	n/a
2804.526	0.0	nontarget	5	2804526	v	0	25.0	n/a	n/a	12
2806.476	0.0	nontarget	5	2806476	y	0	14.0	n/a	n/a	12
2808.609	0.0	nontarget	5	2808609	b	0	25.0	n/a	n/a	12
2810.892	0.0	nontarget	5	2810892	h	0	34.0	n/a	n/a	12
2813.409	0.0	target	6	2813409	z	1	48.0	1	0.4463982	12
2813.859	0.5	BAD keypress	2	2813859	n/a	n/a	n/a	n/a	n/a	n/a
2814.109	0.0	keypress	4	2814109	n/a	n/a	n/a	n/a	n/a	n/a
2815.509	0.0	nontarget	5	2815509	s	0	25.0	n/a	n/a	12
2818.025	0.0	target	6	2818025	s	1	48.0	1	0.3895788	12
2818.409	0.5	BAD keypress	2	2818409	n/a	n/a	n/a	n/a	n/a	n/a
2818.659	0.0	keypress	4	2818659	n/a	n/a	n/a	n/a	n/a	n/a
2820.409	0.0	nontarget	5	2820409	ö	0	46.0	n/a	n/a	12
2822.759	0.0	nontarget	5	2822759	j	0	38.0	n/a	n/a	12
2824.925	0.0	nontarget	5	2824925	y	0	27.0	n/a	n/a	12
2827.125	0.0	nontarget	5	2827125	a	0	29.0	n/a	n/a	12
2829.442	0.0	nontarget	5	2829442	d	0	36.0	n/a	n/a	12
2831.875	0.0	nontarget	5	2831875	g	0	43.0	n/a	n/a	12
2834.058	0.0	nontarget	5	2834058	k	0	28.0	n/a	n/a	12
2836.241	0.0	nontarget	5	2836241	a	0	28.0	n/a	n/a	12
2838.558	0.0	nontarget	5	2838558	x	0	36.0	n/a	n/a	12
2840.674	0.0	nontarget	5	2840674	s	0	24.0	n/a	n/a	12
2842.808	0.0	nontarget	5	2842808	q	0	25.0	n/a	n/a	12
2845.241	0.0	nontarget	5	2845241	u	0	43.0	n/a	n/a	12
2847.724	0.0	nontarget	5	2847724	b	0	46.0	n/a	n/a	12
2849.824	0.0	target	6	2849824	ä	1	23.0	1	0.4288871	12
2850.157	0.5	BAD keypress	2	2850157	n/a	n/a	n/a	n/a	n/a	n/a
2850.407	0.0	keypress	4	2850407	n/a	n/a	n/a	n/a	n/a	n/a
2852.107	0.0	nontarget	5	2852107	e	0	43.0	n/a	n/a	12
2854.574	0.0	nontarget	5	2854574	p	0	45.0	n/a	n/a	12
2856.99	0.0	nontarget	5	2856990	s	0	42.0	n/a	n/a	12
2859.19	0.0	nontarget	5	2859190	g	0	29.0	n/a	n/a	12
2861.14	0.0	nontarget	5	2861140	v	0	14.0	n/a	n/a	12
2863.623	0.0	nontarget	5	2863623	q	0	46.0	n/a	n/a	12
2866.09	0.0	target	6	2866090	m	1	45.0	1	0.4018312	12
2866.407	0.5	BAD keypress	2	2866407	n/a	n/a	n/a	n/a	n/a	n/a
2866.657	0.0	keypress	4	2866657	n/a	n/a	n/a	n/a	n/a	n/a
2868.373	0.0	nontarget	5	2868373	m	0	44.0	n/a	n/a	12
2870.556	0.0	nontarget	5	2870556	y	0	28.0	n/a	n/a	12
2872.79	0.0	nontarget	5	2872790	c	0	31.0	n/a	n/a	12
2875.24	0.0	nontarget	5	2875240	t	0	44.0	n/a	n/a	12
2877.456	0.0	nontarget	5	2877456	b	0	30.0	n/a	n/a	12
2879.739	0.0	nontarget	5	2879739	m	0	34.0	n/a	n/a	12
2882.156	0.0	nontarget	5	2882156	n	0	42.0	n/a	n/a	12
2884.473	0.0	nontarget	5	2884473	k	0	36.0	n/a	n/a	12
2886.989	0.0	nontarget	5	2886989	f	0	48.0	n/a	n/a	12
2889.456	0.0	target	6	2889456	ä	1	45.0	1	0.4265688	12
2889.806	0.5	BAD keypress	2	2889806	n/a	n/a	n/a	n/a	n/a	n/a
2890.056	0.0	keypress	4	2890056	n/a	n/a	n/a	n/a	n/a	n/a
2891.639	0.0	target	6	2891639	q	1	36.0	0	n/a	12
2894.389	0.0	nontarget	5	2894389	y	0	31.0	n/a	n/a	12
2896.572	0.0	nontarget	5	2896572	q	0	28.0	n/a	n/a	12
2898.722	0.0	nontarget	5	2898722	x	0	26.0	n/a	n/a	12
2901.105	0.0	target	6	2901105	b	1	40.0	1	0.4402913	12
2901.489	0.5	BAD keypress	2	2901489	n/a	n/a	n/a	n/a	n/a	n/a
2901.739	0.0	keypress	4	2901739	n/a	n/a	n/a	n/a	n/a	n/a
2903.105	0.0	nontarget	5	2903105	l	0	23.0	n/a	n/a	12
2905.205	0.0	nontarget	5	2905205	v	0	23.0	n/a	n/a	12
2907.338	0.0	target	6	2907338	h	1	25.0	1	0.4468106	12
2907.672	0.5	BAD keypress	2	2907672	n/a	n/a	n/a	n/a	n/a	n/a
2907.922	0.0	keypress	4	2907922	n/a	n/a	n/a	n/a	n/a	n/a
2909.321	0.0	nontarget	5	2909321	y	0	25.0	n/a	n/a	12
2911.821	0.0	target	6	2911821	m	1	47.0	1	0.4433707	12
2912.205	0.5	BAD keypress	2	2912205	n/a	n/a	n/a	n/a	n/a	n/a
2912.455	0.0	keypress	4	2912455	n/a	n/a	n/a	n/a	n/a	n/a
2914.155	0.0	nontarget	5	2914155	h	0	43.0	n/a	n/a	12
2916.138	0.0	nontarget	5	2916138	k	0	16.0	n/a	n/a	12
2918.204	0.0	nontarget	5	2918204	ö	0	21.0	n/a	n/a	12
2920.521	0.0	nontarget	5	2920521	d	0	36.0	n/a	n/a	12
2922.621	0.0	target	6	2922621	a	1	23.0	1	0.4591333	12
2923.004	0.5	BAD keypress	2	2923004	n/a	n/a	n/a	n/a	n/a	n/a
2923.254	0.0	keypress	4	2923254	n/a	n/a	n/a	n/a	n/a	n/a
2925.004	0.0	target	6	2925004	u	1	46.0	1	0.3957431	12
2925.321	0.5	BAD keypress	2	2925321	n/a	n/a	n/a	n/a	n/a	n/a
2925.571	0.0	keypress	4	2925571	n/a	n/a	n/a	n/a	n/a	n/a
2926.804	0.0	nontarget	5	2926804	e	0	15.0	n/a	n/a	12
2927.904	65.14699999999993	BAD_break	3	2927904	n/a	n/a	n/a	n/a	n/a	n/a
2993.551	0.0	nontarget	5	2993551	v	0	15.0	n/a	n/a	13
2995.618	0.0	nontarget	5	2995618	r	0	21.0	n/a	n/a	13
2998.034	0.0	nontarget	5	2998034	ä	0	42.0	n/a	n/a	13
3000.251	0.0	nontarget	5	3000251	x	0	30.0	n/a	n/a	13
3002.284	0.0	target	6	3002284	o	1	19.0	1	0.4385629	13
3002.634	0.5	BAD keypress	2	3002634	n/a	n/a	n/a	n/a	n/a	n/a
3002.884	0.0	keypress	4	3002884	n/a	n/a	n/a	n/a	n/a	n/a
3004.251	0.0	nontarget	5	3004251	a	0	23.0	n/a	n/a	13
3006.717	0.0	nontarget	5	3006717	u	0	45.0	n/a	n/a	13
3009.117	0.0	nontarget	5	3009117	i	0	41.0	n/a	n/a	13
3011.217	0.0	nontarget	5	3011217	f	0	23.0	n/a	n/a	13
3013.617	0.0	nontarget	5	3013617	c	0	41.0	n/a	n/a	13
3016.017	0.0	nontarget	5	3016017	a	0	41.0	n/a	n/a	13
3018.5	0.0	nontarget	5	3018500	n	0	46.0	n/a	n/a	13
3020.783	0.0	nontarget	5	3020783	ö	0	34.0	n/a	n/a	13
3022.8	0.0	nontarget	5	3022800	h	0	18.0	n/a	n/a	13
3025.233	0.0	target	6	3025233	u	1	43.0	1	0.5120368	13
3025.65	0.5	BAD keypress	2	3025650	n/a	n/a	n/a	n/a	n/a	n/a
3025.9	0.0	keypress	4	3025900	n/a	n/a	n/a	n/a	n/a	n/a
3027.183	0.0	nontarget	5	3027183	t	0	18.0	n/a	n/a	13
3029.416	0.0	nontarget	5	3029416	ü	0	31.0	n/a	n/a	13
3031.666	0.0	nontarget	5	3031666	z	0	32.0	n/a	n/a	13
3033.733	0.0	nontarget	5	3033733	h	0	21.0	n/a	n/a	13
3036.266	0.0	nontarget	5	3036266	k	0	49.0	n/a	n/a	13
3038.299	0.0	nontarget	5	3038299	e	0	19.0	n/a	n/a	13
3040.732	0.0	nontarget	5	3040732	ö	0	43.0	n/a	n/a	13
3042.749	0.0	nontarget	5	3042749	g	0	18.0	n/a	n/a	13
3045.182	0.0	nontarget	5	3045182	t	0	43.0	n/a	n/a	13
3047.265	0.0	target	6	3047265	q	1	22.0	1	0.4621651	13
3047.632	0.5	BAD keypress	2	3047632	n/a	n/a	n/a	n/a	n/a	n/a
3047.882	0.0	keypress	4	3047882	n/a	n/a	n/a	n/a	n/a	n/a
3049.299	0.0	nontarget	5	3049299	ö	0	26.0	n/a	n/a	13
3051.315	0.0	nontarget	5	3051315	w	0	18.0	n/a	n/a	13
3053.298	0.0	nontarget	5	3053298	m	0	16.0	n/a	n/a	13
3055.348	0.0	nontarget	5	3055348	d	0	20.0	n/a	n/a	13
3057.415	0.0	nontarget	5	3057415	ß	0	21.0	n/a	n/a	13
3059.465	0.0	nontarget	5	3059465	x	0	20.0	n/a	n/a	13
3061.515	0.0	nontarget	5	3061515	f	0	20.0	n/a	n/a	13
3063.498	0.0	target	6	3063498	ä	1	16.0	1	0.5004593	13
3063.881	0.5	BAD keypress	2	3063881	n/a	n/a	n/a	n/a	n/a	n/a
3064.131	0.0	keypress	4	3064131	n/a	n/a	n/a	n/a	n/a	n/a
3065.398	0.0	nontarget	5	3065398	k	0	17.0	n/a	n/a	13
3067.348	0.0	nontarget	5	3067348	ä	0	14.0	n/a	n/a	13
3069.781	0.0	nontarget	5	3069781	n	0	43.0	n/a	n/a	13
3071.814	0.0	nontarget	5	3071814	o	0	19.0	n/a	n/a	13
3074.197	0.0	nontarget	5	3074197	g	0	40.0	n/a	n/a	13
3076.297	0.0	nontarget	5	3076297	x	0	23.0	n/a	n/a	13
3078.547	0.0	nontarget	5	3078547	ö	0	32.0	n/a	n/a	13
3080.997	0.0	nontarget	5	3080997	m	0	44.0	n/a	n/a	13
3083.18	0.0	nontarget	5	3083180	w	0	28.0	n/a	n/a	13
3085.73	0.0	nontarget	5	3085730	ä	0	50.0	n/a	n/a	13
3087.947	0.0	nontarget	5	3087947	e	0	30.0	n/a	n/a	13
3090.23	0.0	target	6	3090230	w	1	34.0	1	0.5505745	13
3090.664	0.5	BAD keypress	2	3090664	n/a	n/a	n/a	n/a	n/a	n/a
3090.914	0.0	keypress	4	3090914	n/a	n/a	n/a	n/a	n/a	n/a
3092.147	0.0	target	6	3092147	ü	1	15.0	1	0.5058157	13
3092.53	0.5	BAD keypress	2	3092530	n/a	n/a	n/a	n/a	n/a	n/a
3092.78	0.0	keypress	4	3092780	n/a	n/a	n/a	n/a	n/a	n/a
3094.53	0.0	target	6	3094530	u	1	46.0	1	0.3784696	13
3094.847	0.5	BAD keypress	2	3094847	n/a	n/a	n/a	n/a	n/a	n/a
3095.097	0.0	keypress	4	3095097	n/a	n/a	n/a	n/a	n/a	n/a
3096.33	0.0	nontarget	5	3096330	z	0	15.0	n/a	n/a	13
3098.88	0.0	nontarget	5	3098880	e	0	50.0	n/a	n/a	13
3100.946	0.0	target	6	3100946	n	1	21.0	1	0.4575972	13
3101.313	0.5	BAD keypress	2	3101313	n/a	n/a	n/a	n/a	n/a	n/a
3101.563	0.0	keypress	4	3101563	n/a	n/a	n/a	n/a	n/a	n/a
3103.163	0.0	nontarget	5	3103163	k	0	37.0	n/a	n/a	13
3105.663	0.0	nontarget	5	3105663	t	0	47.0	n/a	n/a	13
3108.196	0.0	nontarget	5	3108196	ü	0	49.0	n/a	n/a	13
3110.296	0.0	nontarget	5	3110296	p	0	23.0	n/a	n/a	13
3112.429	0.0	nontarget	5	3112429	u	0	25.0	n/a	n/a	13
3114.746	0.0	nontarget	5	3114746	t	0	36.0	n/a	n/a	13
3117.296	0.0	nontarget	5	3117296	m	0	50.0	n/a	n/a	13
3119.795	0.0	nontarget	5	3119795	ß	0	47.0	n/a	n/a	13
3122.245	0.0	nontarget	5	3122245	j	0	44.0	n/a	n/a	13
3124.345	0.0	nontarget	5	3124345	z	0	23.0	n/a	n/a	13
3126.678	0.0	nontarget	5	3126678	ö	0	37.0	n/a	n/a	13
3128.795	0.0	nontarget	5	3128795	m	0	24.0	n/a	n/a	13
3131.245	0.0	target	6	3131245	o	1	44.0	1	0.4449273	13
3131.612	0.5	BAD keypress	2	3131612	n/a	n/a	n/a	n/a	n/a	n/a
3131.862	0.0	keypress	4	3131862	n/a	n/a	n/a	n/a	n/a	n/a
3133.478	0.0	nontarget	5	3133478	c	0	38.0	n/a	n/a	13
3135.528	0.0	nontarget	5	3135528	a	0	20.0	n/a	n/a	13
3137.928	0.0	target	6	3137928	c	1	41.0	0	n/a	13
3139.028	21.96600000000035	BAD_break	3	3139028	n/a	n/a	n/a	n/a	n/a	n/a
3161.494	0.0	nontarget	5	3161494	k	0	41.0	n/a	n/a	14
3163.977	0.0	target	6	3163977	r	1	46.0	1	0.4467512	14
3164.344	0.5	BAD keypress	2	3164344	n/a	n/a	n/a	n/a	n/a	n/a
3164.594	0.0	keypress	4	3164594	n/a	n/a	n/a	n/a	n/a	n/a
3165.877	0.0	nontarget	5	3165877	m	0	18.0	n/a	n/a	14
3167.91	0.0	nontarget	5	3167910	t	0	19.0	n/a	n/a	14
3170.327	0.0	nontarget	5	3170327	n	0	42.0	n/a	n/a	14
3172.76	0.0	nontarget	5	3172760	ö	0	43.0	n/a	n/a	14
3174.826	0.0	nontarget	5	3174826	ß	0	21.0	n/a	n/a	14
3177.01	0.0	nontarget	5	3177010	ä	0	28.0	n/a	n/a	14
3179.51	0.0	nontarget	5	3179510	d	0	47.0	n/a	n/a	14
3182.009	0.0	target	6	3182009	f	1	47.0	1	0.4130626	14
3182.326	0.5	BAD keypress	2	3182326	n/a	n/a	n/a	n/a	n/a	n/a
3182.576	0.0	keypress	4	3182576	n/a	n/a	n/a	n/a	n/a	n/a
3184.293	0.0	nontarget	5	3184293	w	0	44.0	n/a	n/a	14
3186.343	0.0	nontarget	5	3186343	l	0	20.0	n/a	n/a	14
3188.309	0.0	nontarget	5	3188309	e	0	15.0	n/a	n/a	14
3190.342	0.0	nontarget	5	3190342	h	0	19.0	n/a	n/a	14
3192.359	0.0	target	6	3192359	g	1	18.0	1	0.4947643	14
3192.726	0.5	BAD keypress	2	3192726	n/a	n/a	n/a	n/a	n/a	n/a
3192.976	0.0	keypress	4	3192976	n/a	n/a	n/a	n/a	n/a	n/a
3194.659	0.0	target	6	3194659	f	1	42.0	1	0.4667376	14
3195.042	0.5	BAD keypress	2	3195042	n/a	n/a	n/a	n/a	n/a	n/a
3195.292	0.0	keypress	4	3195292	n/a	n/a	n/a	n/a	n/a	n/a
3197.025	0.0	target	6	3197025	r	1	45.0	1	0.4200278	14
3197.342	0.5	BAD keypress	2	3197342	n/a	n/a	n/a	n/a	n/a	n/a
3197.592	0.0	keypress	4	3197592	n/a	n/a	n/a	n/a	n/a	n/a
3199.075	0.0	nontarget	5	3199075	k	0	30.0	n/a	n/a	14
3201.559	0.0	target	6	3201559	e	1	46.0	1	0.3986434	14
3201.875	0.5	BAD keypress	2	3201875	n/a	n/a	n/a	n/a	n/a	n/a
3202.125	0.0	keypress	4	3202125	n/a	n/a	n/a	n/a	n/a	n/a
3203.892	0.0	nontarget	5	3203892	r	0	47.0	n/a	n/a	14
3206.425	0.0	target	6	3206425	d	1	49.0	1	0.3637907	14
3206.708	0.5	BAD keypress	2	3206708	n/a	n/a	n/a	n/a	n/a	n/a
3206.958	0.0	keypress	4	3206958	n/a	n/a	n/a	n/a	n/a	n/a
3208.692	0.0	nontarget	5	3208692	a	0	45.0	n/a	n/a	14
3210.825	0.0	nontarget	5	3210825	i	0	25.0	n/a	n/a	14
3213.275	0.0	target	6	3213275	ü	1	44.0	1	0.36165	14
3213.575	0.5	BAD keypress	2	3213575	n/a	n/a	n/a	n/a	n/a	n/a
3213.825	0.0	keypress	4	3213825	n/a	n/a	n/a	n/a	n/a	n/a
3215.108	0.0	nontarget	5	3215108	l	0	18.0	n/a	n/a	14
3217.475	0.0	nontarget	5	3217475	z	0	39.0	n/a	n/a	14
3220.008	0.0	nontarget	5	3220008	o	0	49.0	n/a	n/a	14
3222.441	0.0	target	6	3222441	d	1	43.0	1	0.3947808	14
3222.741	0.5	BAD keypress	2	3222741	n/a	n/a	n/a	n/a	n/a	n/a
3222.991	0.0	keypress	4	3222991	n/a	n/a	n/a	n/a	n/a	n/a
3224.358	0.0	nontarget	5	3224358	x	0	23.0	n/a	n/a	14
3226.841	0.0	nontarget	5	3226841	z	0	46.0	n/a	n/a	14
3229.374	0.0	nontarget	5	3229374	b	0	49.0	n/a	n/a	14
3231.691	0.0	nontarget	5	3231691	y	0	36.0	n/a	n/a	14
3233.641	0.0	nontarget	5	3233641	u	0	14.0	n/a	n/a	14
3235.64	0.0	target	6	3235640	r	1	17.0	0	n/a	14
3238.157	0.0	nontarget	5	3238157	i	0	17.0	n/a	n/a	14
3240.374	0.0	nontarget	5	3240374	b	0	30.0	n/a	n/a	14
3242.807	0.0	nontarget	5	3242807	s	0	43.0	n/a	n/a	14
3245.24	0.0	nontarget	5	3245240	m	0	43.0	n/a	n/a	14
3247.573	0.0	nontarget	5	3247573	h	0	37.0	n/a	n/a	14
3249.723	0.0	nontarget	5	3249723	ö	0	26.0	n/a	n/a	14
3251.723	0.0	target	6	3251723	i	1	17.0	0	n/a	14
3252.823	1.4670000000000982	BAD_break	3	3252823	n/a	n/a	n/a	n/a	n/a	n/a
3254.79	0.0	nontarget	5	3254790	s	0	50.0	n/a	n/a	14
3257.339	0.0	nontarget	5	3257339	b	0	50.0	n/a	n/a	14
3259.523	0.0	nontarget	5	3259523	o	0	28.0	n/a	n/a	14
3262.073	0.0	nontarget	5	3262073	p	0	50.0	n/a	n/a	14
3264.306	0.0	nontarget	5	3264306	g	0	31.0	n/a	n/a	14
3266.606	0.0	nontarget	5	3266606	y	0	35.0	0	0.3710113	14
3266.606	1.0	BAD incorrect	1	3266606	y	0	35.0	0	0.3710113	14
3266.856	0.5	BAD keypress	2	3266856	n/a	n/a	n/a	n/a	n/a	n/a
3267.106	0.0	keypress	4	3267106	n/a	n/a	n/a	n/a	n/a	n/a
3268.922	0.0	nontarget	5	3268922	c	0	19.0	n/a	n/a	14
3271.255	0.0	nontarget	5	3271255	ä	0	37.0	n/a	n/a	14
3273.222	0.0	nontarget	5	3273222	w	0	15.0	n/a	n/a	14
3275.455	0.0	target	6	3275455	y	1	31.0	1	0.4167712	14
3275.755	0.5	BAD keypress	2	3275755	n/a	n/a	n/a	n/a	n/a	n/a
3276.005	0.0	keypress	4	3276005	n/a	n/a	n/a	n/a	n/a	n/a
3277.439	0.0	nontarget	5	3277439	b	0	27.0	n/a	n/a	14
3279.522	0.0	nontarget	5	3279522	l	0	22.0	n/a	n/a	14
3282.055	0.0	nontarget	5	3282055	a	0	49.0	n/a	n/a	14
3284.538	0.0	nontarget	5	3284538	h	0	46.0	n/a	n/a	14
3287.088	0.0	nontarget	5	3287088	y	0	50.0	n/a	n/a	14
3289.121	0.0	nontarget	5	3289121	r	0	19.0	n/a	n/a	14
3291.221	0.0	nontarget	5	3291221	o	0	23.0	n/a	n/a	14
3293.521	0.0	target	6	3293521	q	1	35.0	1	0.3977309	14
3293.821	0.5	BAD keypress	2	3293821	n/a	n/a	n/a	n/a	n/a	n/a
3294.071	0.0	keypress	4	3294071	n/a	n/a	n/a	n/a	n/a	n/a
3295.521	0.0	nontarget	5	3295521	y	0	28.0	n/a	n/a	14
3296.621	12.377999999999702	BAD_break	3	3296621	n/a	n/a	n/a	n/a	n/a	n/a
