onset	duration	trial_type	value	sample	stimulus	target	blank_jitter_frames	accuracy	response_time	block
0.0	237.087	BAD_break	3	0	n/a	n/a	n/a	n/a	n/a	n/a
237.587	0.0	nontarget	5	237587	ß	0	36.0	n/a	n/a	1
239.537	0.0	nontarget	5	239537	f	0	14.0	n/a	n/a	1
241.987	0.0	nontarget	5	241987	r	0	44.0	n/a	n/a	1
244.104	0.0	nontarget	5	244104	y	0	24.0	n/a	n/a	1
246.27	0.0	nontarget	5	246270	ü	0	27.0	n/a	n/a	1
248.704	0.0	nontarget	5	248704	k	0	43.0	n/a	n/a	1
251.153	0.0	nontarget	5	251153	c	0	44.0	n/a	n/a	1
253.287	0.0	nontarget	5	253287	l	0	25.0	n/a	n/a	1
255.437	0.0	nontarget	5	255437	e	0	26.0	n/a	n/a	1
257.486	0.0	target	6	257486	h	1	20.0	1	0.4096006	1
257.77	0.5	BAD keypress	2	257770	n/a	n/a	n/a	n/a	n/a	n/a
258.02	0.0	keypress	4	258020	n/a	n/a	n/a	n/a	n/a	n/a
259.736	0.0	nontarget	5	259736	c	0	44.0	n/a	n/a	1
262.02	0.0	nontarget	5	262020	j	0	34.0	n/a	n/a	1
264.286	0.0	nontarget	5	264286	r	0	33.0	n/a	n/a	1
266.553	0.0	nontarget	5	266553	e	0	33.0	n/a	n/a	1
268.586	0.0	nontarget	5	268586	y	0	19.0	n/a	n/a	1
270.686	0.0	nontarget	5	270686	s	0	23.0	n/a	n/a	1
272.769	0.0	nontarget	5	272769	j	0	22.0	n/a	n/a	1
274.786	0.0	nontarget	5	274786	u	0	18.0	n/a	n/a	1
276.936	0.0	target	6	276936	m	1	26.0	1	0.3831855	1
277.169	0.5	BAD keypress	2	277169	n/a	n/a	n/a	n/a	n/a	n/a
277.419	0.0	keypress	4	277419	n/a	n/a	n/a	n/a	n/a	n/a
278.852	0.0	nontarget	5	278852	b	0	26.0	n/a	n/a	1
281.102	0.0	target	6	281102	n	1	32.0	1	0.5043908	1
281.452	0.5	BAD keypress	2	281452	n/a	n/a	n/a	n/a	n/a	n/a
281.702	0.0	keypress	4	281702	n/a	n/a	n/a	n/a	n/a	n/a
283.202	0.0	nontarget	5	283202	d	0	30.0	n/a	n/a	1
285.185	0.0	nontarget	5	285185	i	0	16.0	n/a	n/a	1
287.552	0.0	nontarget	5	287552	x	0	39.0	n/a	n/a	1
289.618	0.0	nontarget	5	289618	q	0	21.0	n/a	n/a	1
292.102	0.0	nontarget	5	292102	f	0	46.0	n/a	n/a	1
294.102	0.0	nontarget	5	294102	w	0	17.0	n/a	n/a	1
296.435	0.0	nontarget	5	296435	i	0	37.0	n/a	n/a	1
298.501	0.0	nontarget	5	298501	l	0	21.0	n/a	n/a	1
300.801	0.0	nontarget	5	300801	u	0	35.0	n/a	n/a	1
303.084	0.0	nontarget	5	303084	o	0	34.0	n/a	n/a	1
305.234	0.0	nontarget	5	305234	z	0	26.0	n/a	n/a	1
307.351	0.0	target	6	307351	a	1	24.0	1	0.4139124	1
307.618	0.5	BAD keypress	2	307618	n/a	n/a	n/a	n/a	n/a	n/a
307.868	0.0	keypress	4	307868	n/a	n/a	n/a	n/a	n/a	n/a
309.284	0.0	nontarget	5	309284	h	0	26.0	n/a	n/a	1
311.251	0.0	nontarget	5	311251	s	0	15.0	n/a	n/a	1
313.784	0.0	nontarget	5	313784	ü	0	49.0	n/a	n/a	1
316.334	0.0	target	6	316334	w	1	50.0	1	0.4862894	1
316.667	0.5	BAD keypress	2	316667	n/a	n/a	n/a	n/a	n/a	n/a
316.917	0.0	keypress	4	316917	n/a	n/a	n/a	n/a	n/a	n/a
318.317	0.0	target	6	318317	t	1	24.0	1	0.438984	1
318.617	0.5	BAD keypress	2	318617	n/a	n/a	n/a	n/a	n/a	n/a
318.867	0.0	keypress	4	318867	n/a	n/a	n/a	n/a	n/a	n/a
320.584	0.0	nontarget	5	320584	e	0	44.0	n/a	n/a	1
322.8	0.0	target	6	322800	c	1	30.0	1	0.4674919	1
323.117	0.5	BAD keypress	2	323117	n/a	n/a	n/a	n/a	n/a	n/a
323.367	0.0	keypress	4	323367	n/a	n/a	n/a	n/a	n/a	n/a
325.117	0.0	nontarget	5	325117	b	0	46.0	n/a	n/a	1
327.55	0.0	nontarget	5	327550	g	0	43.0	n/a	n/a	1
329.833	0.0	nontarget	5	329833	v	0	34.0	n/a	n/a	1
332.183	0.0	nontarget	5	332183	m	0	38.0	n/a	n/a	1
334.65	0.0	nontarget	5	334650	l	0	45.0	n/a	n/a	1
336.75	0.0	nontarget	5	336750	h	0	23.0	n/a	n/a	1
338.916	0.0	target	6	338916	q	1	27.0	1	0.4945595	1
339.283	0.5	BAD keypress	2	339283	n/a	n/a	n/a	n/a	n/a	n/a
339.533	0.0	keypress	4	339533	n/a	n/a	n/a	n/a	n/a	n/a
341.099	0.0	nontarget	5	341099	v	0	35.0	n/a	n/a	1
343.433	0.0	nontarget	5	343433	e	0	37.0	n/a	n/a	1
345.883	0.0	nontarget	5	345883	c	0	44.0	n/a	n/a	1
348.316	0.0	target	6	348316	ü	1	43.0	1	0.3902787	1
348.566	0.5	BAD keypress	2	348566	n/a	n/a	n/a	n/a	n/a	n/a
348.816	0.0	keypress	4	348816	n/a	n/a	n/a	n/a	n/a	n/a
350.416	0.0	nontarget	5	350416	m	0	37.0	n/a	n/a	1
352.916	0.0	target	6	352916	l	1	47.0	1	0.5101375	1
353.282	0.5	BAD keypress	2	353282	n/a	n/a	n/a	n/a	n/a	n/a
353.532	0.0	keypress	4	353532	n/a	n/a	n/a	n/a	n/a	n/a
355.249	0.0	target	6	355249	w	1	44.0	1	0.4167983	1
355.516	0.5	BAD keypress	2	355516	n/a	n/a	n/a	n/a	n/a	n/a
355.766	0.0	keypress	4	355766	n/a	n/a	n/a	n/a	n/a	n/a
357.115	0.0	nontarget	5	357115	a	0	21.0	n/a	n/a	1
359.615	0.0	nontarget	5	359615	e	0	47.0	n/a	n/a	1
361.965	0.0	target	6	361965	z	1	38.0	1	0.4200259	1
362.215	0.5	BAD keypress	2	362215	n/a	n/a	n/a	n/a	n/a	n/a
362.465	0.0	keypress	4	362465	n/a	n/a	n/a	n/a	n/a	n/a
364.015	0.0	nontarget	5	364015	ä	0	33.0	n/a	n/a	1
366.298	0.0	target	6	366298	k	1	34.0	1	0.4545253	1
366.615	0.5	BAD keypress	2	366615	n/a	n/a	n/a	n/a	n/a	n/a
366.865	0.0	keypress	4	366865	n/a	n/a	n/a	n/a	n/a	n/a
368.365	0.0	nontarget	5	368365	m	0	31.0	n/a	n/a	1
370.482	0.0	nontarget	5	370482	c	0	24.0	n/a	n/a	1
372.831	0.0	nontarget	5	372831	x	0	38.0	n/a	n/a	1
374.981	0.0	target	6	374981	h	1	26.0	1	0.4589909	1
375.315	0.5	BAD keypress	2	375315	n/a	n/a	n/a	n/a	n/a	n/a
375.565	0.0	keypress	4	375565	n/a	n/a	n/a	n/a	n/a	n/a
377.148	0.0	nontarget	5	377148	ß	0	36.0	n/a	n/a	1
379.231	0.0	nontarget	5	379231	r	0	22.0	n/a	n/a	1
381.464	0.0	nontarget	5	381464	ü	0	31.0	n/a	n/a	1
382.564	19.166	BAD_break	3	382564	n/a	n/a	n/a	n/a	n/a	n/a
402.23	0.0	target	6	402230	y	1	26.0	1	0.5044217	2
402.58	0.5	BAD keypress	2	402580	n/a	n/a	n/a	n/a	n/a	n/a
402.83	0.0	keypress	4	402830	n/a	n/a	n/a	n/a	n/a	n/a
404.513	0.0	nontarget	5	404513	s	0	41.0	n/a	n/a	2
406.897	0.0	nontarget	5	406897	d	0	40.0	n/a	n/a	2
408.963	0.0	nontarget	5	408963	j	0	21.0	n/a	n/a	2
410.98	0.0	nontarget	5	410980	h	0	18.0	n/a	n/a	2
413.23	0.0	target	6	413230	l	1	32.0	1	0.4161671	2
413.496	0.5	BAD keypress	2	413496	n/a	n/a	n/a	n/a	n/a	n/a
413.746	0.0	keypress	4	413746	n/a	n/a	n/a	n/a	n/a	n/a
415.03	0.0	nontarget	5	415030	i	0	18.0	n/a	n/a	2
417.113	0.0	nontarget	5	417113	a	0	22.0	n/a	n/a	2
419.213	0.0	nontarget	5	419213	y	0	23.0	n/a	n/a	2
421.546	0.0	nontarget	5	421546	ü	0	37.0	n/a	n/a	2
423.979	0.0	nontarget	5	423979	p	0	43.0	n/a	n/a	2
426.062	0.0	nontarget	5	426062	g	0	22.0	n/a	n/a	2
428.312	0.0	nontarget	5	428312	r	0	32.0	n/a	n/a	2
430.546	0.0	nontarget	5	430546	t	0	31.0	n/a	n/a	2
432.512	0.0	nontarget	5	432512	l	0	15.0	n/a	n/a	2
434.629	0.0	nontarget	5	434629	s	0	24.0	n/a	n/a	2
436.895	0.0	nontarget	5	436895	y	0	33.0	n/a	n/a	2
439.045	0.0	nontarget	5	439045	x	0	26.0	n/a	n/a	2
441.395	0.0	nontarget	5	441395	j	0	38.0	n/a	n/a	2
443.662	0.0	target	6	443662	ä	1	33.0	1	0.3981937	2
443.878	0.5	BAD keypress	2	443878	n/a	n/a	n/a	n/a	n/a	n/a
444.128	0.0	keypress	4	444128	n/a	n/a	n/a	n/a	n/a	n/a
445.478	0.0	nontarget	5	445478	v	0	21.0	n/a	n/a	2
447.961	0.0	nontarget	5	447961	g	0	46.0	n/a	n/a	2
449.978	0.0	nontarget	5	449978	ß	0	15.0	n/a	n/a	2
452.195	0.0	nontarget	5	452195	q	0	30.0	n/a	n/a	2
454.644	0.0	nontarget	5	454644	w	0	44.0	n/a	n/a	2
457.078	0.0	nontarget	5	457078	p	0	43.0	n/a	n/a	2
459.144	0.0	nontarget	5	459144	f	0	21.0	n/a	n/a	2
461.577	0.0	nontarget	5	461577	j	0	43.0	n/a	n/a	2
463.961	0.0	nontarget	5	463961	x	0	40.0	n/a	n/a	2
465.994	0.0	nontarget	5	465994	y	0	19.0	n/a	n/a	2
468.311	0.0	nontarget	5	468311	q	0	36.0	n/a	n/a	2
470.36	0.0	nontarget	5	470360	c	0	20.0	n/a	n/a	2
472.877	0.0	nontarget	5	472877	n	0	48.0	n/a	n/a	2
475.227	0.0	nontarget	5	475227	z	0	38.0	n/a	n/a	2
477.56	0.0	nontarget	5	477560	x	0	37.0	n/a	n/a	2
479.677	0.0	target	6	479677	q	1	24.0	1	0.4287996	2
479.927	0.5	BAD keypress	2	479927	n/a	n/a	n/a	n/a	n/a	n/a
480.177	0.0	keypress	4	480177	n/a	n/a	n/a	n/a	n/a	n/a
481.61	0.0	target	6	481610	ü	1	27.0	1	0.4793428	2
481.927	0.5	BAD keypress	2	481927	n/a	n/a	n/a	n/a	n/a	n/a
482.177	0.0	keypress	4	482177	n/a	n/a	n/a	n/a	n/a	n/a
483.793	0.0	nontarget	5	483793	ü	0	38.0	n/a	n/a	2
485.96	0.0	nontarget	5	485960	i	0	27.0	n/a	n/a	2
488.36	0.0	target	6	488360	x	1	41.0	1	0.4491412	2
488.66	0.5	BAD keypress	2	488660	n/a	n/a	n/a	n/a	n/a	n/a
488.91	0.0	keypress	4	488910	n/a	n/a	n/a	n/a	n/a	n/a
490.243	0.0	nontarget	5	490243	t	0	21.0	n/a	n/a	2
492.243	0.0	nontarget	5	492243	k	0	17.0	n/a	n/a	2
494.493	0.0	nontarget	5	494493	x	0	32.0	n/a	n/a	2
496.759	0.0	nontarget	5	496759	ö	0	33.0	n/a	n/a	2
499.259	0.0	nontarget	5	499259	t	0	47.0	n/a	n/a	2
501.742	0.0	nontarget	5	501742	ü	0	46.0	n/a	n/a	2
504.092	0.0	nontarget	5	504092	b	0	38.0	n/a	n/a	2
506.442	0.0	nontarget	5	506442	m	0	38.0	n/a	n/a	2
508.942	0.0	nontarget	5	508942	o	0	47.0	n/a	n/a	2
511.209	0.0	nontarget	5	511209	ß	0	33.0	n/a	n/a	2
513.542	0.0	target	6	513542	k	1	37.0	1	0.433317	2
513.825	0.5	BAD keypress	2	513825	n/a	n/a	n/a	n/a	n/a	n/a
514.075	0.0	keypress	4	514075	n/a	n/a	n/a	n/a	n/a	n/a
515.858	0.0	nontarget	5	515858	c	0	48.0	n/a	n/a	2
518.175	0.0	nontarget	5	518175	b	0	36.0	n/a	n/a	2
520.692	0.0	target	6	520692	a	1	48.0	1	0.4352144	2
521.008	0.5	BAD keypress	2	521008	n/a	n/a	n/a	n/a	n/a	n/a
521.258	0.0	keypress	4	521258	n/a	n/a	n/a	n/a	n/a	n/a
522.908	0.0	nontarget	5	522908	ö	0	40.0	n/a	n/a	2
525.125	0.0	nontarget	5	525125	y	0	30.0	n/a	n/a	2
527.591	0.0	target	6	527591	e	1	45.0	1	0.3989537	2
527.841	0.5	BAD keypress	2	527841	n/a	n/a	n/a	n/a	n/a	n/a
528.091	0.0	keypress	4	528091	n/a	n/a	n/a	n/a	n/a	n/a
529.391	0.0	target	6	529391	x	1	19.0	1	0.4710134	2
529.741	0.5	BAD keypress	2	529741	n/a	n/a	n/a	n/a	n/a	n/a
529.991	0.0	keypress	4	529991	n/a	n/a	n/a	n/a	n/a	n/a
531.291	0.0	nontarget	5	531291	e	0	19.0	n/a	n/a	2
533.324	0.0	nontarget	5	533324	j	0	19.0	n/a	n/a	2
535.441	0.0	nontarget	5	535441	l	0	24.0	n/a	n/a	2
537.507	0.0	target	6	537507	j	1	21.0	1	0.5300775	2
537.874	0.5	BAD keypress	2	537874	n/a	n/a	n/a	n/a	n/a	n/a
538.124	0.0	keypress	4	538124	n/a	n/a	n/a	n/a	n/a	n/a
539.407	0.0	nontarget	5	539407	y	0	18.0	n/a	n/a	2
541.907	0.0	nontarget	5	541907	e	0	47.0	n/a	n/a	2
544.024	0.0	nontarget	5	544024	l	0	24.0	n/a	n/a	2
545.99	0.0	nontarget	5	545990	r	0	15.0	n/a	n/a	2
547.09	9.432999999999993	BAD_break	3	547090	n/a	n/a	n/a	n/a	n/a	n/a
557.023	0.0	nontarget	5	557023	y	0	50.0	n/a	n/a	3
559.19	0.0	nontarget	5	559190	i	0	27.0	n/a	n/a	3
561.206	0.0	nontarget	5	561206	ü	0	18.0	n/a	n/a	3
563.69	0.0	nontarget	5	563690	r	0	46.0	n/a	n/a	3
565.64	0.0	target	6	565640	r	1	14.0	1	0.4762215	3
565.973	0.5	BAD keypress	2	565973	n/a	n/a	n/a	n/a	n/a	n/a
566.223	0.0	keypress	4	566223	n/a	n/a	n/a	n/a	n/a	n/a
567.506	0.0	nontarget	5	567506	k	0	18.0	n/a	n/a	3
569.889	0.0	nontarget	5	569889	z	0	40.0	n/a	n/a	3
572.139	0.0	nontarget	5	572139	ß	0	32.0	n/a	n/a	3
574.389	0.0	nontarget	5	574389	w	0	32.0	n/a	n/a	3
576.656	0.0	nontarget	5	576656	ö	0	33.0	n/a	n/a	3
578.739	0.0	nontarget	5	578739	v	0	22.0	n/a	n/a	3
580.922	0.0	target	6	580922	s	1	28.0	1	0.4085301	3
581.189	0.5	BAD keypress	2	581189	n/a	n/a	n/a	n/a	n/a	n/a
581.439	0.0	keypress	4	581439	n/a	n/a	n/a	n/a	n/a	n/a
583.172	0.0	nontarget	5	583172	p	0	45.0	n/a	n/a	3
585.539	0.0	nontarget	5	585539	i	0	39.0	n/a	n/a	3
587.605	0.0	nontarget	5	587605	j	0	21.0	n/a	n/a	3
590.022	0.0	nontarget	5	590022	z	0	42.0	n/a	n/a	3
592.055	0.0	nontarget	5	592055	s	0	19.0	n/a	n/a	3
594.472	0.0	nontarget	5	594472	k	0	42.0	n/a	n/a	3
596.855	0.0	nontarget	5	596855	r	0	40.0	n/a	n/a	3
599.038	0.0	nontarget	5	599038	h	0	28.0	n/a	n/a	3
601.305	0.0	target	6	601305	o	1	33.0	1	0.4246729	3
601.588	0.5	BAD keypress	2	601588	n/a	n/a	n/a	n/a	n/a	n/a
601.838	0.0	keypress	4	601838	n/a	n/a	n/a	n/a	n/a	n/a
603.305	0.0	target	6	603305	c	1	29.0	1	0.5046968	3
603.671	0.5	BAD keypress	2	603671	n/a	n/a	n/a	n/a	n/a	n/a
603.921	0.0	keypress	4	603921	n/a	n/a	n/a	n/a	n/a	n/a
605.588	0.0	nontarget	5	605588	ö	0	41.0	n/a	n/a	3
607.988	0.0	nontarget	5	607988	m	0	41.0	n/a	n/a	3
610.321	0.0	nontarget	5	610321	q	0	37.0	n/a	n/a	3
612.388	0.0	nontarget	5	612388	b	0	21.0	n/a	n/a	3
614.921	0.0	nontarget	5	614921	ö	0	49.0	n/a	n/a	3
616.871	0.0	target	6	616871	v	1	14.0	1	0.4416731	3
617.171	0.5	BAD keypress	2	617171	n/a	n/a	n/a	n/a	n/a	n/a
617.421	0.0	keypress	4	617421	n/a	n/a	n/a	n/a	n/a	n/a
618.871	0.0	nontarget	5	618871	l	0	28.0	n/a	n/a	3
621.054	0.0	nontarget	5	621054	s	0	28.0	n/a	n/a	3
623.404	0.0	nontarget	5	623404	g	0	38.0	n/a	n/a	3
625.37	0.0	target	6	625370	k	1	15.0	1	0.4854977	3
625.704	0.5	BAD keypress	2	625704	n/a	n/a	n/a	n/a	n/a	n/a
625.954	0.0	keypress	4	625954	n/a	n/a	n/a	n/a	n/a	n/a
627.77	0.0	nontarget	5	627770	ö	0	50.0	n/a	n/a	3
630.237	0.0	target	6	630237	r	1	45.0	1	0.434687	3
630.553	0.5	BAD keypress	2	630553	n/a	n/a	n/a	n/a	n/a	n/a
630.803	0.0	keypress	4	630803	n/a	n/a	n/a	n/a	n/a	n/a
632.32	0.0	target	6	632320	h	1	32.0	1	0.399425	3
632.587	0.5	BAD keypress	2	632587	n/a	n/a	n/a	n/a	n/a	n/a
632.837	0.0	keypress	4	632837	n/a	n/a	n/a	n/a	n/a	n/a
634.653	0.0	nontarget	5	634653	i	0	50.0	n/a	n/a	3
636.703	0.0	nontarget	5	636703	w	0	20.0	n/a	n/a	3
638.736	0.0	nontarget	5	638736	t	0	19.0	n/a	n/a	3
640.77	0.0	nontarget	5	640770	ö	0	19.0	n/a	n/a	3
643.17	0.0	nontarget	5	643170	z	0	41.0	n/a	n/a	3
645.569	0.0	nontarget	5	645569	g	0	41.0	n/a	n/a	3
647.519	0.0	target	6	647519	v	1	14.0	1	0.4149484	3
647.819	0.5	BAD keypress	2	647819	n/a	n/a	n/a	n/a	n/a	n/a
648.069	0.0	keypress	4	648069	n/a	n/a	n/a	n/a	n/a	n/a
649.703	0.0	nontarget	5	649703	a	0	39.0	n/a	n/a	3
651.736	0.0	nontarget	5	651736	s	0	19.0	n/a	n/a	3
653.969	0.0	nontarget	5	653969	y	0	31.0	n/a	n/a	3
656.236	0.0	target	6	656236	b	1	33.0	1	0.386087	3
656.469	0.5	BAD keypress	2	656469	n/a	n/a	n/a	n/a	n/a	n/a
656.719	0.0	keypress	4	656719	n/a	n/a	n/a	n/a	n/a	n/a
658.452	0.0	target	6	658452	ü	1	45.0	1	0.4253905	3
658.752	0.5	BAD keypress	2	658752	n/a	n/a	n/a	n/a	n/a	n/a
659.002	0.0	keypress	4	659002	n/a	n/a	n/a	n/a	n/a	n/a
660.219	0.0	nontarget	5	660219	j	0	14.0	n/a	n/a	3
662.669	0.0	nontarget	5	662669	ü	0	44.0	n/a	n/a	3
664.719	0.0	target	6	664719	r	1	20.0	1	0.4626268	3
665.052	0.5	BAD keypress	2	665052	n/a	n/a	n/a	n/a	n/a	n/a
665.302	0.0	keypress	4	665302	n/a	n/a	n/a	n/a	n/a	n/a
666.635	0.0	nontarget	5	666635	r	0	21.0	n/a	n/a	3
668.702	0.0	nontarget	5	668702	p	0	21.0	n/a	n/a	3
671.052	0.0	nontarget	5	671052	h	0	38.0	n/a	n/a	3
673.318	0.0	nontarget	5	673318	a	0	33.0	n/a	n/a	3
675.701	0.0	nontarget	5	675701	ß	0	40.0	n/a	n/a	3
677.901	0.0	nontarget	5	677901	y	0	29.0	n/a	n/a	3
679.868	0.0	nontarget	5	679868	u	0	15.0	n/a	n/a	3
682.218	0.0	nontarget	5	682218	a	0	38.0	n/a	n/a	3
684.651	0.0	nontarget	5	684651	w	0	43.0	n/a	n/a	3
686.684	0.0	nontarget	5	686684	n	0	19.0	n/a	n/a	3
688.917	0.0	nontarget	5	688917	i	0	31.0	n/a	n/a	3
691.184	0.0	nontarget	5	691184	p	0	33.0	n/a	n/a	3
693.617	0.0	nontarget	5	693617	ö	0	43.0	n/a	n/a	3
696.15	0.0	target	6	696150	e	1	49.0	1	0.4365193	3
696.434	0.5	BAD keypress	2	696434	n/a	n/a	n/a	n/a	n/a	n/a
696.684	0.0	keypress	4	696684	n/a	n/a	n/a	n/a	n/a	n/a
697.967	0.0	nontarget	5	697967	ä	0	18.0	n/a	n/a	3
700.517	0.0	nontarget	5	700517	k	0	50.0	n/a	n/a	3
701.617	12.91599999999994	BAD_break	3	701617	n/a	n/a	n/a	n/a	n/a	n/a
715.033	0.0	nontarget	5	715033	j	0	26.0	n/a	n/a	4
717.15	0.0	target	6	717150	q	1	24.0	1	0.3960991	4
717.4	0.5	BAD keypress	2	717400	n/a	n/a	n/a	n/a	n/a	n/a
717.65	0.0	keypress	4	717650	n/a	n/a	n/a	n/a	n/a	n/a
718.966	0.0	nontarget	5	718966	ß	0	20.0	n/a	n/a	4
721.466	0.0	nontarget	5	721466	e	0	47.0	n/a	n/a	4
723.933	0.0	nontarget	5	723933	d	0	45.0	n/a	n/a	4
726.083	0.0	nontarget	5	726083	ö	0	26.0	n/a	n/a	4
728.149	0.0	target	6	728149	z	1	21.0	1	0.4358149	4
728.433	0.5	BAD keypress	2	728433	n/a	n/a	n/a	n/a	n/a	n/a
728.683	0.0	keypress	4	728683	n/a	n/a	n/a	n/a	n/a	n/a
730.482	0.0	nontarget	5	730482	z	0	49.0	n/a	n/a	4
732.899	0.0	nontarget	5	732899	t	0	42.0	n/a	n/a	4
735.082	0.0	target	6	735082	a	1	28.0	1	0.3823143	4
735.332	0.5	BAD keypress	2	735332	n/a	n/a	n/a	n/a	n/a	n/a
735.582	0.0	keypress	4	735582	n/a	n/a	n/a	n/a	n/a	n/a
737.115	0.0	nontarget	5	737115	y	0	32.0	n/a	n/a	4
739.549	0.0	nontarget	5	739549	s	0	43.0	n/a	n/a	4
741.748	0.0	nontarget	5	741748	c	0	29.0	n/a	n/a	4
744.265	0.0	nontarget	5	744265	f	0	48.0	n/a	n/a	4
746.748	0.0	nontarget	5	746748	ü	0	46.0	n/a	n/a	4
748.815	0.0	nontarget	5	748815	o	0	21.0	n/a	n/a	4
751.298	0.0	nontarget	5	751298	z	0	46.0	n/a	n/a	4
753.531	0.0	nontarget	5	753531	b	0	31.0	n/a	n/a	4
755.531	0.0	nontarget	5	755531	ß	0	17.0	n/a	n/a	4
757.798	0.0	nontarget	5	757798	y	0	33.0	n/a	n/a	4
760.248	0.0	nontarget	5	760248	u	0	44.0	n/a	n/a	4
762.598	0.0	nontarget	5	762598	w	0	38.0	n/a	n/a	4
764.764	0.0	target	6	764764	y	1	27.0	1	0.5063148	4
765.148	0.5	BAD keypress	2	765148	n/a	n/a	n/a	n/a	n/a	n/a
765.398	0.0	keypress	4	765398	n/a	n/a	n/a	n/a	n/a	n/a
767.164	0.0	nontarget	5	767164	g	0	47.0	n/a	n/a	4
769.347	0.0	nontarget	5	769347	p	0	28.0	n/a	n/a	4
771.347	0.0	target	6	771347	v	1	17.0	1	0.4348414	4
771.614	0.5	BAD keypress	2	771614	n/a	n/a	n/a	n/a	n/a	n/a
771.864	0.0	keypress	4	771864	n/a	n/a	n/a	n/a	n/a	n/a
773.647	0.0	nontarget	5	773647	n	0	48.0	n/a	n/a	4
775.98	0.0	nontarget	5	775980	x	0	37.0	n/a	n/a	4
778.314	0.0	nontarget	5	778314	d	0	37.0	n/a	n/a	4
780.797	0.0	nontarget	5	780797	r	0	46.0	n/a	n/a	4
782.747	0.0	nontarget	5	782747	e	0	14.0	n/a	n/a	4
784.847	0.0	nontarget	5	784847	f	0	23.0	n/a	n/a	4
787.013	0.0	nontarget	5	787013	m	0	27.0	n/a	n/a	4
789.446	0.0	nontarget	5	789446	z	0	43.0	n/a	n/a	4
791.896	0.0	target	6	791896	d	1	44.0	1	0.4123371	4
792.146	0.5	BAD keypress	2	792146	n/a	n/a	n/a	n/a	n/a	n/a
792.396	0.0	keypress	4	792396	n/a	n/a	n/a	n/a	n/a	n/a
794.163	0.0	nontarget	5	794163	f	0	47.0	n/a	n/a	4
796.679	0.0	nontarget	5	796679	s	0	48.0	n/a	n/a	4
799.063	0.0	nontarget	5	799063	y	0	40.0	n/a	n/a	4
801.546	0.0	nontarget	5	801546	a	0	46.0	n/a	n/a	4
803.746	0.0	nontarget	5	803746	ö	0	29.0	n/a	n/a	4
806.079	0.0	nontarget	5	806079	k	0	37.0	n/a	n/a	4
808.462	0.0	target	6	808462	v	1	40.0	1	0.4373761	4
808.762	0.5	BAD keypress	2	808762	n/a	n/a	n/a	n/a	n/a	n/a
809.012	0.0	keypress	4	809012	n/a	n/a	n/a	n/a	n/a	n/a
810.762	0.0	nontarget	5	810762	d	0	46.0	n/a	n/a	4
813.012	0.0	nontarget	5	813012	z	0	32.0	n/a	n/a	4
814.962	0.0	nontarget	5	814962	o	0	14.0	n/a	n/a	4
817.395	0.0	nontarget	5	817395	f	0	43.0	n/a	n/a	4
819.945	0.0	nontarget	5	819945	a	0	50.0	n/a	n/a	4
822.212	0.0	nontarget	5	822212	x	0	33.0	n/a	n/a	4
824.462	0.0	nontarget	5	824462	d	0	32.0	n/a	n/a	4
826.895	0.0	target	6	826895	w	1	43.0	1	0.4196231	4
827.162	0.5	BAD keypress	2	827162	n/a	n/a	n/a	n/a	n/a	n/a
827.412	0.0	keypress	4	827412	n/a	n/a	n/a	n/a	n/a	n/a
829.061	0.0	nontarget	5	829061	i	0	40.0	n/a	n/a	4
831.461	0.0	nontarget	5	831461	f	0	41.0	n/a	n/a	4
833.478	0.0	nontarget	5	833478	v	0	18.0	n/a	n/a	4
835.828	0.0	nontarget	5	835828	u	0	38.0	n/a	n/a	4
838.011	0.0	nontarget	5	838011	j	0	28.0	n/a	n/a	4
840.244	0.0	target	6	840244	l	1	31.0	1	0.4132225	4
840.494	0.5	BAD keypress	2	840494	n/a	n/a	n/a	n/a	n/a	n/a
840.744	0.0	keypress	4	840744	n/a	n/a	n/a	n/a	n/a	n/a
842.244	0.0	nontarget	5	842244	g	0	31.0	n/a	n/a	4
844.344	0.0	nontarget	5	844344	l	0	23.0	n/a	n/a	4
846.794	0.0	nontarget	5	846794	ä	0	44.0	n/a	n/a	4
849.277	0.0	nontarget	5	849277	h	0	46.0	n/a	n/a	4
851.544	0.0	target	6	851544	g	1	33.0	1	0.4089903	4
851.827	0.5	BAD keypress	2	851827	n/a	n/a	n/a	n/a	n/a	n/a
852.077	0.0	keypress	4	852077	n/a	n/a	n/a	n/a	n/a	n/a
853.577	0.0	nontarget	5	853577	s	0	31.0	n/a	n/a	4
855.744	0.0	nontarget	5	855744	m	0	27.0	n/a	n/a	4
857.743	0.0	nontarget	5	857743	j	0	17.0	n/a	n/a	4
859.943	0.0	nontarget	5	859943	t	0	29.0	n/a	n/a	4
862.093	0.0	nontarget	5	862093	c	0	26.0	n/a	n/a	4
863.193	108.64499999999998	BAD_break	3	863193	n/a	n/a	n/a	n/a	n/a	n/a
972.338	0.0	target	6	972338	e	1	18.0	1	0.5182594	5
972.688	0.5	BAD keypress	2	972688	n/a	n/a	n/a	n/a	n/a	n/a
972.938	0.0	keypress	4	972938	n/a	n/a	n/a	n/a	n/a	n/a
974.405	0.0	nontarget	5	974405	q	0	28.0	n/a	n/a	5
976.538	0.0	target	6	976538	s	1	25.0	1	0.3661645	5
976.772	0.5	BAD keypress	2	976772	n/a	n/a	n/a	n/a	n/a	n/a
977.022	0.0	keypress	4	977022	n/a	n/a	n/a	n/a	n/a	n/a
978.388	0.0	nontarget	5	978388	d	0	23.0	n/a	n/a	5
980.855	0.0	nontarget	5	980855	j	0	45.0	n/a	n/a	5
983.238	0.0	nontarget	5	983238	v	0	40.0	n/a	n/a	5
985.571	0.0	nontarget	5	985571	w	0	37.0	n/a	n/a	5
987.604	0.0	nontarget	5	987604	p	0	19.0	n/a	n/a	5
990.054	0.0	nontarget	5	990054	e	0	44.0	n/a	n/a	5
992.088	0.0	nontarget	5	992088	h	0	19.0	n/a	n/a	5
994.471	0.0	nontarget	5	994471	u	0	40.0	n/a	n/a	5
996.537	0.0	target	6	996537	a	1	21.0	1	0.5256292	5
996.921	0.5	BAD keypress	2	996921	n/a	n/a	n/a	n/a	n/a	n/a
997.171	0.0	keypress	4	997171	n/a	n/a	n/a	n/a	n/a	n/a
998.987	0.0	nontarget	5	998987	o	0	50.0	n/a	n/a	5
1001.087	0.0	nontarget	5	1001087	y	0	23.0	n/a	n/a	5
1003.604	0.0	nontarget	5	1003604	h	0	48.0	n/a	n/a	5
1005.77	0.0	nontarget	5	1005770	f	0	27.0	n/a	n/a	5
1008.07	0.0	nontarget	5	1008070	b	0	35.0	n/a	n/a	5
1010.37	0.0	target	6	1010370	ä	1	35.0	1	0.3880512	5
1010.62	0.5	BAD keypress	2	1010620	n/a	n/a	n/a	n/a	n/a	n/a
1010.87	0.0	keypress	4	1010870	n/a	n/a	n/a	n/a	n/a	n/a
1012.653	0.0	nontarget	5	1012653	t	0	48.0	n/a	n/a	5
1015.037	0.0	nontarget	5	1015037	g	0	40.0	n/a	n/a	5
1017.07	0.0	nontarget	5	1017070	c	0	19.0	n/a	n/a	5
1019.336	0.0	target	6	1019336	o	1	33.0	1	0.3651065	5
1019.586	0.5	BAD keypress	2	1019586	n/a	n/a	n/a	n/a	n/a	n/a
1019.836	0.0	keypress	4	1019836	n/a	n/a	n/a	n/a	n/a	n/a
1021.403	0.0	nontarget	5	1021403	ß	0	35.0	n/a	n/a	5
1023.719	0.0	nontarget	5	1023719	s	0	36.0	n/a	n/a	5
1026.086	0.0	nontarget	5	1026086	z	0	39.0	n/a	n/a	5
1028.403	0.0	nontarget	5	1028403	p	0	36.0	n/a	n/a	5
1030.919	0.0	nontarget	5	1030919	ß	0	48.0	n/a	n/a	5
1032.869	0.0	nontarget	5	1032869	ü	0	14.0	n/a	n/a	5
1035.336	0.0	target	6	1035336	o	1	45.0	1	0.3968088	5
1035.569	0.5	BAD keypress	2	1035569	n/a	n/a	n/a	n/a	n/a	n/a
1035.819	0.0	keypress	4	1035819	n/a	n/a	n/a	n/a	n/a	n/a
1037.602	0.0	nontarget	5	1037602	w	0	48.0	n/a	n/a	5
1039.735	0.0	nontarget	5	1039735	l	0	25.0	n/a	n/a	5
1041.885	0.0	target	6	1041885	g	1	26.0	1	0.3745712	5
1042.102	0.5	BAD keypress	2	1042102	n/a	n/a	n/a	n/a	n/a	n/a
1042.352	0.0	keypress	4	1042352	n/a	n/a	n/a	n/a	n/a	n/a
1044.169	0.0	target	6	1044169	y	1	50.0	1	0.411207	5
1044.435	0.5	BAD keypress	2	1044435	n/a	n/a	n/a	n/a	n/a	n/a
1044.685	0.0	keypress	4	1044685	n/a	n/a	n/a	n/a	n/a	n/a
1046.085	0.0	nontarget	5	1046085	n	0	25.0	n/a	n/a	5
1048.552	0.0	nontarget	5	1048552	r	0	45.0	n/a	n/a	5
1050.585	0.0	nontarget	5	1050585	g	0	19.0	n/a	n/a	5
1052.668	0.0	target	6	1052668	w	1	22.0	1	0.4070795	5
1052.968	0.5	BAD keypress	2	1052968	n/a	n/a	n/a	n/a	n/a	n/a
1053.218	0.0	keypress	4	1053218	n/a	n/a	n/a	n/a	n/a	n/a
1054.718	0.0	nontarget	5	1054718	d	0	31.0	n/a	n/a	5
1056.951	0.0	nontarget	5	1056951	m	0	31.0	n/a	n/a	5
1059.218	0.0	nontarget	5	1059218	i	0	33.0	n/a	n/a	5
1061.368	0.0	nontarget	5	1061368	s	0	26.0	n/a	n/a	5
1063.484	0.0	nontarget	5	1063484	g	0	24.0	n/a	n/a	5
1065.468	0.0	nontarget	5	1065468	j	0	16.0	n/a	n/a	5
1067.618	0.0	target	6	1067618	x	1	26.0	1	0.3686741	5
1067.851	0.5	BAD keypress	2	1067851	n/a	n/a	n/a	n/a	n/a	n/a
1068.101	0.0	keypress	4	1068101	n/a	n/a	n/a	n/a	n/a	n/a
1069.517	0.0	nontarget	5	1069517	ü	0	26.0	n/a	n/a	5
1072.067	0.0	target	6	1072067	j	1	50.0	1	0.4465342	5
1072.367	0.5	BAD keypress	2	1072367	n/a	n/a	n/a	n/a	n/a	n/a
1072.617	0.0	keypress	4	1072617	n/a	n/a	n/a	n/a	n/a	n/a
1074.001	0.0	nontarget	5	1074001	g	0	24.0	n/a	n/a	5
1076.417	0.0	target	6	1076417	i	1	42.0	1	0.416535	5
1076.651	0.5	BAD keypress	2	1076651	n/a	n/a	n/a	n/a	n/a	n/a
1076.901	0.0	keypress	4	1076901	n/a	n/a	n/a	n/a	n/a	n/a
1078.417	0.0	nontarget	5	1078417	i	0	32.0	n/a	n/a	5
1080.617	0.0	nontarget	5	1080617	r	0	29.0	n/a	n/a	5
1083.134	0.0	target	6	1083134	h	1	48.0	1	0.3397242	5
1083.35	0.5	BAD keypress	2	1083350	n/a	n/a	n/a	n/a	n/a	n/a
1083.6	0.0	keypress	4	1083600	n/a	n/a	n/a	n/a	n/a	n/a
1084.883	0.0	nontarget	5	1084883	g	0	18.0	n/a	n/a	5
1087.217	0.0	nontarget	5	1087217	u	0	37.0	n/a	n/a	5
1089.3	0.0	nontarget	5	1089300	i	0	22.0	n/a	n/a	5
1091.433	0.0	nontarget	5	1091433	ö	0	25.0	n/a	n/a	5
1093.483	0.0	nontarget	5	1093483	j	0	20.0	n/a	n/a	5
1095.683	0.0	nontarget	5	1095683	ü	0	29.0	n/a	n/a	5
1098.183	0.0	nontarget	5	1098183	p	0	47.0	n/a	n/a	5
1100.583	0.0	nontarget	5	1100583	ß	0	41.0	n/a	n/a	5
1103.116	0.0	nontarget	5	1103116	f	0	49.0	n/a	n/a	5
1105.149	0.0	nontarget	5	1105149	w	0	19.0	n/a	n/a	5
1107.199	0.0	nontarget	5	1107199	s	0	20.0	n/a	n/a	5
1109.282	0.0	nontarget	5	1109282	u	0	22.0	n/a	n/a	5
1111.399	0.0	nontarget	5	1111399	ß	0	24.0	n/a	n/a	5
1113.716	0.0	nontarget	5	1113716	a	0	36.0	n/a	n/a	5
1115.682	0.0	nontarget	5	1115682	q	0	15.0	n/a	n/a	5
1116.782	9.75	BAD_break	3	1116782	n/a	n/a	n/a	n/a	n/a	n/a
1127.032	0.0	nontarget	5	1127032	r	0	32.0	n/a	n/a	6
1129.232	0.0	nontarget	5	1129232	u	0	29.0	n/a	n/a	6
1131.548	0.0	nontarget	5	1131548	x	0	36.0	n/a	n/a	6
1133.948	0.0	target	6	1133948	d	1	41.0	1	0.3698374	6
1134.165	0.5	BAD keypress	2	1134165	n/a	n/a	n/a	n/a	n/a	n/a
1134.415	0.0	keypress	4	1134415	n/a	n/a	n/a	n/a	n/a	n/a
1136.048	0.0	nontarget	5	1136048	c	0	39.0	n/a	n/a	6
1138.281	0.0	nontarget	5	1138281	s	0	31.0	n/a	n/a	6
1140.298	0.0	nontarget	5	1140298	z	0	18.0	n/a	n/a	6
1142.248	0.0	nontarget	5	1142248	ö	0	14.0	n/a	n/a	6
1144.214	0.0	target	6	1144214	r	1	15.0	1	0.4068718	6
1144.481	0.5	BAD keypress	2	1144481	n/a	n/a	n/a	n/a	n/a	n/a
1144.731	0.0	keypress	4	1144731	n/a	n/a	n/a	n/a	n/a	n/a
1146.497	0.0	nontarget	5	1146497	m	0	47.0	n/a	n/a	6
1149.031	0.0	nontarget	5	1149031	o	0	49.0	n/a	n/a	6
1151.364	0.0	nontarget	5	1151364	ß	0	37.0	n/a	n/a	6
1153.33	0.0	nontarget	5	1153330	y	0	15.0	n/a	n/a	6
1155.747	0.0	target	6	1155747	q	1	42.0	1	0.393266	6
1155.98	0.5	BAD keypress	2	1155980	n/a	n/a	n/a	n/a	n/a	n/a
1156.23	0.0	keypress	4	1156230	n/a	n/a	n/a	n/a	n/a	n/a
1157.597	0.0	nontarget	5	1157597	h	0	23.0	n/a	n/a	6
1159.647	0.0	nontarget	5	1159647	e	0	20.0	n/a	n/a	6
1161.63	0.0	nontarget	5	1161630	d	0	16.0	n/a	n/a	6
1164.147	0.0	nontarget	5	1164147	ü	0	48.0	n/a	n/a	6
1166.697	0.0	nontarget	5	1166697	ö	0	50.0	n/a	n/a	6
1168.713	0.0	nontarget	5	1168713	k	0	18.0	n/a	n/a	6
1171.096	0.0	nontarget	5	1171096	f	0	40.0	n/a	n/a	6
1173.196	0.0	nontarget	5	1173196	b	0	23.0	n/a	n/a	6
1175.446	0.0	nontarget	5	1175446	ß	0	32.0	n/a	n/a	6
1177.829	0.0	nontarget	5	1177829	t	0	40.0	n/a	n/a	6
1180.213	0.0	nontarget	5	1180213	i	0	40.0	n/a	n/a	6
1182.596	0.0	target	6	1182596	x	1	40.0	1	0.374737	6
1182.813	0.5	BAD keypress	2	1182813	n/a	n/a	n/a	n/a	n/a	n/a
1183.063	0.0	keypress	4	1183063	n/a	n/a	n/a	n/a	n/a	n/a
1184.612	0.0	target	6	1184612	j	1	33.0	1	0.4539319	6
1184.929	0.5	BAD keypress	2	1184929	n/a	n/a	n/a	n/a	n/a	n/a
1185.179	0.0	keypress	4	1185179	n/a	n/a	n/a	n/a	n/a	n/a
1186.446	0.0	target	6	1186446	u	1	17.0	1	0.3805436	6
1186.679	0.5	BAD keypress	2	1186679	n/a	n/a	n/a	n/a	n/a	n/a
1186.929	0.0	keypress	4	1186929	n/a	n/a	n/a	n/a	n/a	n/a
1188.529	0.0	nontarget	5	1188529	n	0	37.0	n/a	n/a	6
1190.562	0.0	nontarget	5	1190562	v	0	19.0	n/a	n/a	6
1192.979	0.0	nontarget	5	1192979	o	0	42.0	n/a	n/a	6
1195.179	0.0	nontarget	5	1195179	z	0	29.0	n/a	n/a	6
1197.579	0.0	nontarget	5	1197579	w	0	41.0	n/a	n/a	6
1199.778	0.0	nontarget	5	1199778	ä	0	29.0	n/a	n/a	6
1202.295	0.0	nontarget	5	1202295	ö	0	48.0	n/a	n/a	6
1204.628	0.0	nontarget	5	1204628	k	0	37.0	n/a	n/a	6
1207.161	0.0	nontarget	5	1207161	x	0	49.0	n/a	n/a	6
1209.578	0.0	nontarget	5	1209578	n	0	42.0	n/a	n/a	6
1211.611	0.0	nontarget	5	1211611	z	0	19.0	n/a	n/a	6
1213.895	0.0	nontarget	5	1213895	v	0	34.0	n/a	n/a	6
1216.228	0.0	target	6	1216228	u	1	37.0	1	0.5007158	6
1216.594	0.5	BAD keypress	2	1216594	n/a	n/a	n/a	n/a	n/a	n/a
1216.844	0.0	keypress	4	1216844	n/a	n/a	n/a	n/a	n/a	n/a
1218.144	0.0	nontarget	5	1218144	q	0	19.0	n/a	n/a	6
1220.144	0.0	nontarget	5	1220144	g	0	17.0	n/a	n/a	6
1222.094	0.0	target	6	1222094	y	1	14.0	1	0.4417688	6
1222.378	0.5	BAD keypress	2	1222378	n/a	n/a	n/a	n/a	n/a	n/a
1222.628	0.0	keypress	4	1222628	n/a	n/a	n/a	n/a	n/a	n/a
1224.061	0.0	nontarget	5	1224061	l	0	27.0	n/a	n/a	6
1226.344	0.0	nontarget	5	1226344	b	0	34.0	n/a	n/a	6
1228.861	0.0	nontarget	5	1228861	ä	0	48.0	n/a	n/a	6
1231.094	0.0	target	6	1231094	f	1	31.0	1	0.3854388	6
1231.311	0.5	BAD keypress	2	1231311	n/a	n/a	n/a	n/a	n/a	n/a
1231.561	0.0	keypress	4	1231561	n/a	n/a	n/a	n/a	n/a	n/a
1233.194	0.0	target	6	1233194	l	1	39.0	1	0.3815486	6
1233.41	0.5	BAD keypress	2	1233410	n/a	n/a	n/a	n/a	n/a	n/a
1233.66	0.0	keypress	4	1233660	n/a	n/a	n/a	n/a	n/a	n/a
1235.227	0.0	nontarget	5	1235227	x	0	35.0	n/a	n/a	6
1237.51	0.0	nontarget	5	1237510	h	0	34.0	n/a	n/a	6
1239.527	0.0	nontarget	5	1239527	o	0	18.0	n/a	n/a	6
1241.693	0.0	target	6	1241693	ü	1	27.0	1	0.4413599	6
1241.96	0.5	BAD keypress	2	1241960	n/a	n/a	n/a	n/a	n/a	n/a
1242.21	0.0	keypress	4	1242210	n/a	n/a	n/a	n/a	n/a	n/a
1243.96	0.0	nontarget	5	1243960	ü	0	46.0	n/a	n/a	6
1246.46	0.0	nontarget	5	1246460	b	0	47.0	n/a	n/a	6
1248.976	0.0	target	6	1248976	u	1	48.0	1	0.3897533	6
1249.21	0.5	BAD keypress	2	1249210	n/a	n/a	n/a	n/a	n/a	n/a
1249.46	0.0	keypress	4	1249460	n/a	n/a	n/a	n/a	n/a	n/a
1250.693	0.0	nontarget	5	1250693	w	0	15.0	n/a	n/a	6
1252.959	0.0	target	6	1252959	z	1	33.0	1	0.4064063	6
1253.21	0.5	BAD keypress	2	1253210	n/a	n/a	n/a	n/a	n/a	n/a
1253.46	0.0	keypress	4	1253460	n/a	n/a	n/a	n/a	n/a	n/a
1254.909	0.0	nontarget	5	1254909	o	0	28.0	n/a	n/a	6
1257.243	0.0	nontarget	5	1257243	p	0	37.0	n/a	n/a	6
1259.576	0.0	nontarget	5	1259576	d	0	37.0	n/a	n/a	6
1261.792	0.0	nontarget	5	1261792	q	0	30.0	n/a	n/a	6
1264.042	0.0	nontarget	5	1264042	b	0	32.0	n/a	n/a	6
1266.192	0.0	nontarget	5	1266192	k	0	26.0	n/a	n/a	6
1268.175	0.0	nontarget	5	1268175	e	0	16.0	n/a	n/a	6
1270.492	0.0	nontarget	5	1270492	ß	0	36.0	n/a	n/a	6
1271.592	92.61300000000006	BAD_break	3	1271592	n/a	n/a	n/a	n/a	n/a	n/a
1364.705	0.0	nontarget	5	1364705	h	0	20.0	n/a	n/a	7
1366.838	0.0	nontarget	5	1366838	r	0	25.0	n/a	n/a	7
1368.954	0.0	nontarget	5	1368954	c	0	24.0	n/a	n/a	7
1371.421	0.0	nontarget	5	1371421	d	0	45.0	n/a	n/a	7
1373.888	0.0	target	6	1373888	n	1	45.0	1	0.3822126	7
1374.104	0.5	BAD keypress	2	1374104	n/a	n/a	n/a	n/a	n/a	n/a
1374.354	0.0	keypress	4	1374354	n/a	n/a	n/a	n/a	n/a	n/a
1376.087	0.0	nontarget	5	1376087	a	0	45.0	n/a	n/a	7
1378.271	0.0	target	6	1378271	p	1	28.0	1	0.3669244	7
1378.487	0.5	BAD keypress	2	1378487	n/a	n/a	n/a	n/a	n/a	n/a
1378.737	0.0	keypress	4	1378737	n/a	n/a	n/a	n/a	n/a	n/a
1380.337	0.0	nontarget	5	1380337	o	0	37.0	n/a	n/a	7
1382.304	0.0	nontarget	5	1382304	x	0	15.0	n/a	n/a	7
1384.687	0.0	nontarget	5	1384687	ö	0	40.0	n/a	n/a	7
1387.237	0.0	nontarget	5	1387237	s	0	50.0	n/a	n/a	7
1389.704	0.0	nontarget	5	1389704	y	0	45.0	n/a	n/a	7
1391.703	0.0	nontarget	5	1391703	v	0	17.0	n/a	n/a	7
1393.887	0.0	target	6	1393887	p	1	28.0	1	0.381729	7
1394.12	0.5	BAD keypress	2	1394120	n/a	n/a	n/a	n/a	n/a	n/a
1394.37	0.0	keypress	4	1394370	n/a	n/a	n/a	n/a	n/a	n/a
1395.97	0.0	target	6	1395970	a	1	36.0	1	0.3303485	7
1396.153	0.5	BAD keypress	2	1396153	n/a	n/a	n/a	n/a	n/a	n/a
1396.403	0.0	keypress	4	1396403	n/a	n/a	n/a	n/a	n/a	n/a
1397.77	0.0	nontarget	5	1397770	k	0	23.0	n/a	n/a	7
1399.886	0.0	nontarget	5	1399886	f	0	24.0	n/a	n/a	7
1402.086	0.0	target	6	1402086	t	1	29.0	1	0.37360018	7
1402.32	0.5	BAD keypress	2	1402320	n/a	n/a	n/a	n/a	n/a	n/a
1402.57	0.0	keypress	4	1402570	n/a	n/a	n/a	n/a	n/a	n/a
1403.903	0.0	nontarget	5	1403903	b	0	21.0	n/a	n/a	7
1406.386	0.0	nontarget	5	1406386	ß	0	46.0	n/a	n/a	7
1408.669	0.0	nontarget	5	1408669	a	0	34.0	n/a	n/a	7
1410.903	0.0	nontarget	5	1410903	f	0	31.0	n/a	n/a	7
1412.852	0.0	nontarget	5	1412852	c	0	14.0	n/a	n/a	7
1414.886	0.0	nontarget	5	1414886	p	0	19.0	n/a	n/a	7
1417.302	0.0	nontarget	5	1417302	k	0	42.0	n/a	n/a	7
1419.719	0.0	target	6	1419719	i	1	42.0	1	0.4198496	7
1419.969	0.5	BAD keypress	2	1419969	n/a	n/a	n/a	n/a	n/a	n/a
1420.219	0.0	keypress	4	1420219	n/a	n/a	n/a	n/a	n/a	n/a
1422.052	0.0	nontarget	5	1422052	w	0	50.0	n/a	n/a	7
1424.135	0.0	nontarget	5	1424135	q	0	22.0	n/a	n/a	7
1426.319	0.0	nontarget	5	1426319	g	0	28.0	n/a	n/a	7
1428.752	0.0	nontarget	5	1428752	d	0	43.0	n/a	n/a	7
1431.252	0.0	nontarget	5	1431252	j	0	47.0	n/a	n/a	7
1433.218	0.0	nontarget	5	1433218	y	0	15.0	n/a	n/a	7
1435.552	0.0	nontarget	5	1435552	b	0	37.0	n/a	n/a	7
1437.501	0.0	nontarget	5	1437501	r	0	14.0	n/a	n/a	7
1439.585	0.0	nontarget	5	1439585	ä	0	22.0	n/a	n/a	7
1441.701	0.0	nontarget	5	1441701	l	0	24.0	n/a	n/a	7
1444.018	0.0	target	6	1444018	a	1	36.0	1	0.359372	7
1444.218	0.5	BAD keypress	2	1444218	n/a	n/a	n/a	n/a	n/a	n/a
1444.468	0.0	keypress	4	1444468	n/a	n/a	n/a	n/a	n/a	n/a
1446.251	0.0	nontarget	5	1446251	n	0	48.0	n/a	n/a	7
1448.368	0.0	target	6	1448368	r	1	24.0	1	0.3931478	7
1448.601	0.5	BAD keypress	2	1448601	n/a	n/a	n/a	n/a	n/a	n/a
1448.851	0.0	keypress	4	1448851	n/a	n/a	n/a	n/a	n/a	n/a
1450.084	0.0	nontarget	5	1450084	r	0	15.0	n/a	n/a	7
1452.484	0.0	target	6	1452484	h	1	41.0	1	0.3723224	7
1452.684	0.5	BAD keypress	2	1452684	n/a	n/a	n/a	n/a	n/a	n/a
1452.934	0.0	keypress	4	1452934	n/a	n/a	n/a	n/a	n/a	n/a
1454.284	0.0	target	6	1454284	j	1	22.0	1	0.4123296	7
1454.551	0.5	BAD keypress	2	1454551	n/a	n/a	n/a	n/a	n/a	n/a
1454.801	0.0	keypress	4	1454801	n/a	n/a	n/a	n/a	n/a	n/a
1456.051	0.0	nontarget	5	1456051	w	0	16.0	n/a	n/a	7
1458.184	0.0	nontarget	5	1458184	b	0	25.0	n/a	n/a	7
1460.534	0.0	nontarget	5	1460534	s	0	38.0	n/a	n/a	7
1462.9	0.0	target	6	1462900	s	1	39.0	1	0.3554549	7
1463.1	0.5	BAD keypress	2	1463100	n/a	n/a	n/a	n/a	n/a	n/a
1463.35	0.0	keypress	4	1463350	n/a	n/a	n/a	n/a	n/a	n/a
1465.15	0.0	target	6	1465150	d	1	49.0	1	0.3293908	7
1465.35	0.5	BAD keypress	2	1465350	n/a	n/a	n/a	n/a	n/a	n/a
1465.6	0.0	keypress	4	1465600	n/a	n/a	n/a	n/a	n/a	n/a
1467.217	0.0	nontarget	5	1467217	t	0	38.0	n/a	n/a	7
1469.25	0.0	nontarget	5	1469250	n	0	19.0	n/a	n/a	7
1471.217	0.0	nontarget	5	1471217	q	0	15.0	n/a	n/a	7
1473.267	0.0	nontarget	5	1473267	x	0	20.0	n/a	n/a	7
1475.766	0.0	nontarget	5	1475766	e	0	47.0	n/a	n/a	7
1478.05	0.0	nontarget	5	1478050	ä	0	34.0	n/a	n/a	7
1480.416	0.0	nontarget	5	1480416	b	0	39.0	n/a	n/a	7
1482.916	0.0	nontarget	5	1482916	v	0	47.0	n/a	n/a	7
1485.016	0.0	nontarget	5	1485016	ß	0	23.0	n/a	n/a	7
1487.266	0.0	nontarget	5	1487266	i	0	32.0	n/a	n/a	7
1489.532	0.0	target	6	1489532	d	1	33.0	1	0.3616161	7
1489.733	0.5	BAD keypress	2	1489733	n/a	n/a	n/a	n/a	n/a	n/a
1489.983	0.0	keypress	4	1489983	n/a	n/a	n/a	n/a	n/a	n/a
1491.566	0.0	nontarget	5	1491566	z	0	36.0	n/a	n/a	7
1493.799	0.0	nontarget	5	1493799	e	0	31.0	n/a	n/a	7
1495.899	0.0	nontarget	5	1495899	l	0	23.0	n/a	n/a	7
1498.082	0.0	target	6	1498082	g	1	28.0	1	0.4353515	7
1498.349	0.5	BAD keypress	2	1498349	n/a	n/a	n/a	n/a	n/a	n/a
1498.599	0.0	keypress	4	1498599	n/a	n/a	n/a	n/a	n/a	n/a
1499.815	0.0	nontarget	5	1499815	s	0	14.0	n/a	n/a	7
1502.199	0.0	nontarget	5	1502199	h	0	40.0	n/a	n/a	7
1504.149	0.0	nontarget	5	1504149	p	0	14.0	n/a	n/a	7
1506.165	0.0	nontarget	5	1506165	t	0	18.0	n/a	n/a	7
1507.265	29.54900000000021	BAD_break	3	1507265	n/a	n/a	n/a	n/a	n/a	n/a
1537.314	0.0	target	6	1537314	q	1	49.0	1	0.433045	8
1537.58	0.5	BAD keypress	2	1537580	n/a	n/a	n/a	n/a	n/a	n/a
1537.83	0.0	keypress	4	1537830	n/a	n/a	n/a	n/a	n/a	n/a
1539.664	0.0	nontarget	5	1539664	j	0	50.0	n/a	n/a	8
1542.014	0.0	target	6	1542014	b	1	38.0	1	0.3570059	8
1542.247	0.5	BAD keypress	2	1542247	n/a	n/a	n/a	n/a	n/a	n/a
1542.497	0.0	keypress	4	1542497	n/a	n/a	n/a	n/a	n/a	n/a
1543.947	0.0	nontarget	5	1543947	ß	0	28.0	n/a	n/a	8
1546.13	0.0	nontarget	5	1546130	i	0	28.0	n/a	n/a	8
1548.197	0.0	nontarget	5	1548197	z	0	21.0	n/a	n/a	8
1550.596	0.0	nontarget	5	1550596	o	0	41.0	n/a	n/a	8
1552.796	0.0	nontarget	5	1552796	h	0	29.0	n/a	n/a	8
1555.146	0.0	nontarget	5	1555146	r	0	38.0	n/a	n/a	8
1557.213	0.0	nontarget	5	1557213	m	0	21.0	n/a	n/a	8
1559.563	0.0	nontarget	5	1559563	ö	0	38.0	n/a	n/a	8
1562.029	0.0	nontarget	5	1562029	s	0	45.0	n/a	n/a	8
1564.246	0.0	nontarget	5	1564246	o	0	30.0	n/a	n/a	8
1566.396	0.0	nontarget	5	1566396	y	0	26.0	n/a	n/a	8
1568.762	0.0	nontarget	5	1568762	a	0	39.0	n/a	n/a	8
1571.246	0.0	nontarget	5	1571246	ü	0	46.0	n/a	n/a	8
1573.562	0.0	target	6	1573562	l	1	36.0	1	0.454226	8
1573.862	0.5	BAD keypress	2	1573862	n/a	n/a	n/a	n/a	n/a	n/a
1574.112	0.0	keypress	4	1574112	n/a	n/a	n/a	n/a	n/a	n/a
1575.462	0.0	target	6	1575462	k	1	22.0	1	0.4102103	8
1575.729	0.5	BAD keypress	2	1575729	n/a	n/a	n/a	n/a	n/a	n/a
1575.979	0.0	keypress	4	1575979	n/a	n/a	n/a	n/a	n/a	n/a
1577.629	0.0	nontarget	5	1577629	q	0	40.0	n/a	n/a	8
1580.095	0.0	nontarget	5	1580095	p	0	45.0	n/a	n/a	8
1582.478	0.0	nontarget	5	1582478	c	0	40.0	n/a	n/a	8
1584.495	0.0	nontarget	5	1584495	f	0	18.0	n/a	n/a	8
1586.978	0.0	nontarget	5	1586978	d	0	46.0	n/a	n/a	8
1589.195	0.0	nontarget	5	1589195	u	0	30.0	n/a	n/a	8
1591.428	0.0	nontarget	5	1591428	g	0	31.0	n/a	n/a	8
1593.795	0.0	nontarget	5	1593795	q	0	39.0	n/a	n/a	8
1596.328	0.0	nontarget	5	1596328	ß	0	49.0	n/a	n/a	8
1598.361	0.0	nontarget	5	1598361	b	0	19.0	n/a	n/a	8
1600.511	0.0	target	6	1600511	c	1	26.0	1	0.415522	8
1600.761	0.5	BAD keypress	2	1600761	n/a	n/a	n/a	n/a	n/a	n/a
1601.011	0.0	keypress	4	1601011	n/a	n/a	n/a	n/a	n/a	n/a
1602.311	0.0	nontarget	5	1602311	p	0	19.0	n/a	n/a	8
1604.627	0.0	nontarget	5	1604627	o	0	36.0	n/a	n/a	8
1607.011	0.0	nontarget	5	1607011	a	0	40.0	n/a	n/a	8
1609.144	0.0	nontarget	5	1609144	m	0	25.0	n/a	n/a	8
1611.66	0.0	nontarget	5	1611660	c	0	48.0	n/a	n/a	8
1613.644	0.0	nontarget	5	1613644	d	0	16.0	n/a	n/a	8
1615.894	0.0	target	6	1615894	m	1	32.0	1	0.3597784	8
1616.127	0.5	BAD keypress	2	1616127	n/a	n/a	n/a	n/a	n/a	n/a
1616.377	0.0	keypress	4	1616377	n/a	n/a	n/a	n/a	n/a	n/a
1618.127	0.0	nontarget	5	1618127	o	0	46.0	n/a	n/a	8
1620.227	0.0	nontarget	5	1620227	n	0	23.0	n/a	n/a	8
1622.26	0.0	nontarget	5	1622260	f	0	19.0	n/a	n/a	8
1624.677	0.0	target	6	1624677	m	1	42.0	1	0.3603609	8
1624.893	0.5	BAD keypress	2	1624893	n/a	n/a	n/a	n/a	n/a	n/a
1625.143	0.0	keypress	4	1625143	n/a	n/a	n/a	n/a	n/a	n/a
1626.627	0.0	nontarget	5	1626627	q	0	30.0	n/a	n/a	8
1628.926	0.0	nontarget	5	1628926	ü	0	35.0	n/a	n/a	8
1631.243	0.0	nontarget	5	1631243	r	0	36.0	n/a	n/a	8
1633.743	0.0	nontarget	5	1633743	v	0	47.0	n/a	n/a	8
1636.109	0.0	nontarget	5	1636109	x	0	39.0	n/a	n/a	8
1638.409	0.0	nontarget	5	1638409	h	0	35.0	n/a	n/a	8
1640.859	0.0	target	6	1640859	l	1	44.0	1	0.4008556	8
1641.093	0.5	BAD keypress	2	1641093	n/a	n/a	n/a	n/a	n/a	n/a
1641.343	0.0	keypress	4	1641343	n/a	n/a	n/a	n/a	n/a	n/a
1642.942	0.0	nontarget	5	1642942	z	0	37.0	n/a	n/a	8
1645.426	0.0	nontarget	5	1645426	q	0	46.0	n/a	n/a	8
1647.442	0.0	target	6	1647442	j	1	18.0	1	0.3930549	8
1647.676	0.5	BAD keypress	2	1647676	n/a	n/a	n/a	n/a	n/a	n/a
1647.926	0.0	keypress	4	1647926	n/a	n/a	n/a	n/a	n/a	n/a
1649.676	0.0	nontarget	5	1649676	ü	0	46.0	n/a	n/a	8
1651.925	0.0	nontarget	5	1651925	k	0	32.0	n/a	n/a	8
1653.959	0.0	nontarget	5	1653959	a	0	19.0	n/a	n/a	8
1655.975	0.0	nontarget	5	1655975	ß	0	18.0	n/a	n/a	8
1657.975	0.0	nontarget	5	1657975	q	0	17.0	n/a	n/a	8
1660.158	0.0	nontarget	5	1660158	l	0	28.0	n/a	n/a	8
1662.208	0.0	target	6	1662208	i	1	20.0	1	0.4261234	8
1662.475	0.5	BAD keypress	2	1662475	n/a	n/a	n/a	n/a	n/a	n/a
1662.725	0.0	keypress	4	1662725	n/a	n/a	n/a	n/a	n/a	n/a
1664.258	0.0	nontarget	5	1664258	h	0	33.0	n/a	n/a	8
1666.575	0.0	target	6	1666575	g	1	36.0	1	0.3953562	8
1666.825	0.5	BAD keypress	2	1666825	n/a	n/a	n/a	n/a	n/a	n/a
1667.075	0.0	keypress	4	1667075	n/a	n/a	n/a	n/a	n/a	n/a
1668.408	0.0	target	6	1668408	ü	1	21.0	1	0.3698986	8
1668.641	0.5	BAD keypress	2	1668641	n/a	n/a	n/a	n/a	n/a	n/a
1668.891	0.0	keypress	4	1668891	n/a	n/a	n/a	n/a	n/a	n/a
1670.475	0.0	nontarget	5	1670475	u	0	36.0	n/a	n/a	8
1672.958	0.0	nontarget	5	1672958	f	0	46.0	n/a	n/a	8
1675.491	0.0	nontarget	5	1675491	j	0	49.0	n/a	n/a	8
1677.441	0.0	nontarget	5	1677441	x	0	14.0	n/a	n/a	8
1679.791	0.0	target	6	1679791	p	1	38.0	1	0.3463488	8
1679.991	0.5	BAD keypress	2	1679991	n/a	n/a	n/a	n/a	n/a	n/a
1680.241	0.0	keypress	4	1680241	n/a	n/a	n/a	n/a	n/a	n/a
1682.024	0.0	target	6	1682024	m	1	48.0	1	0.3849036	8
1682.241	0.5	BAD keypress	2	1682241	n/a	n/a	n/a	n/a	n/a	n/a
1682.491	0.0	keypress	4	1682491	n/a	n/a	n/a	n/a	n/a	n/a
1683.591	22.79900000000021	BAD_break	3	1683591	n/a	n/a	n/a	n/a	n/a	n/a
1706.89	0.0	nontarget	5	1706890	q	0	33.0	n/a	n/a	9
1708.973	0.0	nontarget	5	1708973	y	0	22.0	n/a	n/a	9
1711.039	0.0	nontarget	5	1711039	g	0	21.0	n/a	n/a	9
1713.323	0.0	nontarget	5	1713323	n	0	34.0	n/a	n/a	9
1715.373	0.0	nontarget	5	1715373	t	0	20.0	n/a	n/a	9
1717.706	0.0	nontarget	5	1717706	e	0	37.0	n/a	n/a	9
1720.039	0.0	nontarget	5	1720039	g	0	37.0	n/a	n/a	9
1722.439	0.0	nontarget	5	1722439	ä	0	41.0	n/a	n/a	9
1724.506	0.0	nontarget	5	1724506	t	0	21.0	n/a	n/a	9
1726.739	0.0	nontarget	5	1726739	ß	0	31.0	n/a	n/a	9
1728.739	0.0	nontarget	5	1728739	a	0	17.0	n/a	n/a	9
1730.839	0.0	nontarget	5	1730839	x	0	23.0	n/a	n/a	9
1733.005	0.0	nontarget	5	1733005	ä	0	27.0	n/a	n/a	9
1735.238	0.0	nontarget	5	1735238	w	0	31.0	n/a	n/a	9
1737.438	0.0	nontarget	5	1737438	l	0	29.0	n/a	n/a	9
1739.705	0.0	nontarget	5	1739705	n	0	33.0	n/a	n/a	9
1741.771	0.0	nontarget	5	1741771	ä	0	21.0	n/a	n/a	9
1743.738	0.0	nontarget	5	1743738	v	0	15.0	n/a	n/a	9
1745.838	0.0	nontarget	5	1745838	m	0	23.0	n/a	n/a	9
1747.988	0.0	nontarget	5	1747988	u	0	26.0	n/a	n/a	9
1750.104	0.0	nontarget	5	1750104	q	0	24.0	n/a	n/a	9
1752.388	0.0	target	6	1752388	f	1	34.0	1	0.3846336	9
1752.604	0.5	BAD keypress	2	1752604	n/a	n/a	n/a	n/a	n/a	n/a
1752.854	0.0	keypress	4	1752854	n/a	n/a	n/a	n/a	n/a	n/a
1754.138	0.0	nontarget	5	1754138	ä	0	18.0	n/a	n/a	9
1756.621	0.0	nontarget	5	1756621	ö	0	46.0	n/a	n/a	9
1759.171	0.0	nontarget	5	1759171	x	0	50.0	n/a	n/a	9
1761.137	0.0	nontarget	5	1761137	o	0	15.0	n/a	n/a	9
1763.637	0.0	target	6	1763637	t	1	47.0	1	0.4303763	9
1763.904	0.5	BAD keypress	2	1763904	n/a	n/a	n/a	n/a	n/a	n/a
1764.154	0.0	keypress	4	1764154	n/a	n/a	n/a	n/a	n/a	n/a
1765.587	0.0	nontarget	5	1765587	u	0	27.0	n/a	n/a	9
1767.97	0.0	nontarget	5	1767970	z	0	40.0	n/a	n/a	9
1770.254	0.0	target	6	1770254	o	1	34.0	1	0.3896004	9
1770.487	0.5	BAD keypress	2	1770487	n/a	n/a	n/a	n/a	n/a	n/a
1770.737	0.0	keypress	4	1770737	n/a	n/a	n/a	n/a	n/a	n/a
1772.02	0.0	target	6	1772020	u	1	18.0	1	0.3987932	9
1772.254	0.5	BAD keypress	2	1772254	n/a	n/a	n/a	n/a	n/a	n/a
1772.504	0.0	keypress	4	1772504	n/a	n/a	n/a	n/a	n/a	n/a
1773.837	0.0	nontarget	5	1773837	h	0	21.0	n/a	n/a	9
1776.37	0.0	nontarget	5	1776370	e	0	49.0	n/a	n/a	9
1778.487	0.0	nontarget	5	1778487	w	0	24.0	n/a	n/a	9
1780.82	0.0	nontarget	5	1780820	u	0	37.0	n/a	n/a	9
1783.07	0.0	nontarget	5	1783070	a	0	32.0	n/a	n/a	9
1785.02	0.0	nontarget	5	1785020	p	0	14.0	n/a	n/a	9
1787.486	0.0	nontarget	5	1787486	z	0	45.0	n/a	n/a	9
1789.869	0.0	target	6	1789869	f	1	40.0	1	0.4524696	9
1790.169	0.5	BAD keypress	2	1790169	n/a	n/a	n/a	n/a	n/a	n/a
1790.419	0.0	keypress	4	1790419	n/a	n/a	n/a	n/a	n/a	n/a
1792.103	0.0	nontarget	5	1792103	q	0	42.0	n/a	n/a	9
1794.453	0.0	nontarget	5	1794453	p	0	38.0	n/a	n/a	9
1796.902	0.0	nontarget	5	1796902	h	0	44.0	n/a	n/a	9
1798.852	0.0	nontarget	5	1798852	l	0	14.0	n/a	n/a	9
1800.986	0.0	nontarget	5	1800986	f	0	25.0	n/a	n/a	9
1803.452	0.0	nontarget	5	1803452	ö	0	45.0	n/a	n/a	9
1805.402	0.0	nontarget	5	1805402	h	0	14.0	n/a	n/a	9
1807.885	0.0	nontarget	5	1807885	k	0	46.0	n/a	n/a	9
1809.835	0.0	nontarget	5	1809835	p	0	14.0	n/a	n/a	9
1812.035	0.0	nontarget	5	1812035	u	0	29.0	n/a	n/a	9
1814.035	0.0	nontarget	5	1814035	v	0	17.0	n/a	n/a	9
1816.368	0.0	nontarget	5	1816368	h	0	37.0	n/a	n/a	9
1818.635	0.0	nontarget	5	1818635	f	0	33.0	n/a	n/a	9
1821.018	0.0	target	6	1821018	z	1	40.0	1	0.4377126	9
1821.301	0.5	BAD keypress	2	1821301	n/a	n/a	n/a	n/a	n/a	n/a
1821.551	0.0	keypress	4	1821551	n/a	n/a	n/a	n/a	n/a	n/a
1823.068	0.0	nontarget	5	1823068	n	0	32.0	n/a	n/a	9
1825.268	0.0	nontarget	5	1825268	s	0	29.0	n/a	n/a	9
1827.284	0.0	nontarget	5	1827284	e	0	18.0	n/a	n/a	9
1829.251	0.0	nontarget	5	1829251	x	0	15.0	n/a	n/a	9
1831.434	0.0	target	6	1831434	b	1	28.0	1	0.4048543	9
1831.684	0.5	BAD keypress	2	1831684	n/a	n/a	n/a	n/a	n/a	n/a
1831.934	0.0	keypress	4	1831934	n/a	n/a	n/a	n/a	n/a	n/a
1833.568	0.0	nontarget	5	1833568	ü	0	39.0	n/a	n/a	9
1835.734	0.0	target	6	1835734	p	1	27.0	1	0.4085446	9
1835.984	0.5	BAD keypress	2	1835984	n/a	n/a	n/a	n/a	n/a	n/a
1836.234	0.0	keypress	4	1836234	n/a	n/a	n/a	n/a	n/a	n/a
1837.884	0.0	nontarget	5	1837884	i	0	40.0	n/a	n/a	9
1840.417	0.0	nontarget	5	1840417	v	0	49.0	n/a	n/a	9
1842.934	0.0	target	6	1842934	v	1	48.0	1	0.5366276	9
1843.301	0.5	BAD keypress	2	1843301	n/a	n/a	n/a	n/a	n/a	n/a
1843.551	0.0	keypress	4	1843551	n/a	n/a	n/a	n/a	n/a	n/a
1845.184	0.0	target	6	1845184	ü	1	39.0	1	0.4144519	9
1845.467	0.5	BAD keypress	2	1845467	n/a	n/a	n/a	n/a	n/a	n/a
1845.717	0.0	keypress	4	1845717	n/a	n/a	n/a	n/a	n/a	n/a
1847.517	0.0	nontarget	5	1847517	f	0	49.0	n/a	n/a	9
1849.633	0.0	target	6	1849633	f	1	24.0	1	0.4604175	9
1849.934	0.5	BAD keypress	2	1849934	n/a	n/a	n/a	n/a	n/a	n/a
1850.184	0.0	keypress	4	1850184	n/a	n/a	n/a	n/a	n/a	n/a
1851.284	24.14800000000014	BAD_break	3	1851284	n/a	n/a	n/a	n/a	n/a	n/a
1875.932	0.0	nontarget	5	1875932	v	0	44.0	n/a	n/a	10
1878.216	0.0	nontarget	5	1878216	n	0	34.0	n/a	n/a	10
1880.549	0.0	nontarget	5	1880549	p	0	37.0	n/a	n/a	10
1882.565	0.0	nontarget	5	1882565	z	0	18.0	n/a	n/a	10
1884.565	0.0	target	6	1884565	q	1	17.0	1	0.406287	10
1884.815	0.5	BAD keypress	2	1884815	n/a	n/a	n/a	n/a	n/a	n/a
1885.065	0.0	keypress	4	1885065	n/a	n/a	n/a	n/a	n/a	n/a
1886.282	0.0	nontarget	5	1886282	t	0	14.0	n/a	n/a	10
1888.315	0.0	nontarget	5	1888315	a	0	19.0	n/a	n/a	10
1890.782	0.0	nontarget	5	1890782	ß	0	45.0	n/a	n/a	10
1893.082	0.0	nontarget	5	1893082	i	0	35.0	n/a	n/a	10
1895.365	0.0	nontarget	5	1895365	d	0	34.0	n/a	n/a	10
1897.665	0.0	nontarget	5	1897665	w	0	35.0	n/a	n/a	10
1899.981	0.0	target	6	1899981	t	1	36.0	1	0.4131268	10
1900.231	0.5	BAD keypress	2	1900231	n/a	n/a	n/a	n/a	n/a	n/a
1900.481	0.0	keypress	4	1900481	n/a	n/a	n/a	n/a	n/a	n/a
1901.815	0.0	nontarget	5	1901815	b	0	21.0	n/a	n/a	10
1904.131	0.0	nontarget	5	1904131	l	0	36.0	n/a	n/a	10
1906.081	0.0	nontarget	5	1906081	x	0	14.0	n/a	n/a	10
1908.281	0.0	nontarget	5	1908281	d	0	29.0	n/a	n/a	10
1910.447	0.0	target	6	1910447	m	1	27.0	1	0.3943231	10
1910.698	0.5	BAD keypress	2	1910698	n/a	n/a	n/a	n/a	n/a	n/a
1910.948	0.0	keypress	4	1910948	n/a	n/a	n/a	n/a	n/a	n/a
1912.297	0.0	nontarget	5	1912297	m	0	21.0	n/a	n/a	10
1914.431	0.0	nontarget	5	1914431	o	0	25.0	n/a	n/a	10
1916.514	0.0	nontarget	5	1916514	c	0	22.0	n/a	n/a	10
1918.564	0.0	nontarget	5	1918564	v	0	20.0	n/a	n/a	10
1921.047	0.0	target	6	1921047	o	1	46.0	1	0.4661078	10
1921.33	0.5	BAD keypress	2	1921330	n/a	n/a	n/a	n/a	n/a	n/a
1921.58	0.0	keypress	4	1921580	n/a	n/a	n/a	n/a	n/a	n/a
1923.197	0.0	nontarget	5	1923197	i	0	38.0	n/a	n/a	10
1925.547	0.0	nontarget	5	1925547	ä	0	38.0	n/a	n/a	10
1927.847	0.0	nontarget	5	1927847	ü	0	35.0	n/a	n/a	10
1930.363	0.0	nontarget	5	1930363	f	0	48.0	n/a	n/a	10
1932.597	0.0	target	6	1932597	d	1	31.0	1	0.4197649	10
1932.83	0.5	BAD keypress	2	1932830	n/a	n/a	n/a	n/a	n/a	n/a
1933.08	0.0	keypress	4	1933080	n/a	n/a	n/a	n/a	n/a	n/a
1934.48	0.0	nontarget	5	1934480	j	0	24.0	n/a	n/a	10
1936.63	0.0	target	6	1936630	x	1	26.0	1	0.514292	10
1936.963	0.5	BAD keypress	2	1936963	n/a	n/a	n/a	n/a	n/a	n/a
1937.213	0.0	keypress	4	1937213	n/a	n/a	n/a	n/a	n/a	n/a
1938.446	0.0	nontarget	5	1938446	ä	0	15.0	n/a	n/a	10
1940.613	0.0	nontarget	5	1940613	p	0	27.0	n/a	n/a	10
1943.096	0.0	nontarget	5	1943096	s	0	46.0	n/a	n/a	10
1945.163	0.0	nontarget	5	1945163	i	0	21.0	n/a	n/a	10
1947.629	0.0	nontarget	5	1947629	z	0	45.0	n/a	n/a	10
1949.579	0.0	nontarget	5	1949579	j	0	14.0	n/a	n/a	10
1951.746	0.0	nontarget	5	1951746	p	0	27.0	n/a	n/a	10
1953.912	0.0	nontarget	5	1953912	e	0	27.0	n/a	n/a	10
1955.862	0.0	nontarget	5	1955862	l	0	14.0	n/a	n/a	10
1957.845	0.0	nontarget	5	1957845	ö	0	16.0	n/a	n/a	10
1959.862	0.0	nontarget	5	1959862	c	0	18.0	n/a	n/a	10
1962.179	0.0	target	6	1962179	g	1	36.0	1	0.4516473	10
1962.462	0.5	BAD keypress	2	1962462	n/a	n/a	n/a	n/a	n/a	n/a
1962.712	0.0	keypress	4	1962712	n/a	n/a	n/a	n/a	n/a	n/a
1964.362	0.0	nontarget	5	1964362	r	0	40.0	n/a	n/a	10
1966.312	0.0	nontarget	5	1966312	o	0	14.0	n/a	n/a	10
1968.678	0.0	target	6	1968678	i	1	39.0	1	0.5275695	10
1969.045	0.5	BAD keypress	2	1969045	n/a	n/a	n/a	n/a	n/a	n/a
1969.295	0.0	keypress	4	1969295	n/a	n/a	n/a	n/a	n/a	n/a
1970.728	0.0	nontarget	5	1970728	b	0	27.0	n/a	n/a	10
1972.678	0.0	nontarget	5	1972678	x	0	14.0	n/a	n/a	10
1975.128	0.0	target	6	1975128	b	1	44.0	1	0.3813733	10
1975.345	0.5	BAD keypress	2	1975345	n/a	n/a	n/a	n/a	n/a	n/a
1975.595	0.0	keypress	4	1975595	n/a	n/a	n/a	n/a	n/a	n/a
1977.111	0.0	nontarget	5	1977111	c	0	32.0	n/a	n/a	10
1979.211	0.0	nontarget	5	1979211	n	0	23.0	n/a	n/a	10
1981.161	0.0	nontarget	5	1981161	a	0	14.0	n/a	n/a	10
1983.644	0.0	nontarget	5	1983644	w	0	46.0	n/a	n/a	10
1985.828	0.0	nontarget	5	1985828	e	0	28.0	n/a	n/a	10
1988.244	0.0	nontarget	5	1988244	l	0	42.0	n/a	n/a	10
1990.561	0.0	target	6	1990561	p	1	36.0	1	0.4037039	10
1990.794	0.5	BAD keypress	2	1990794	n/a	n/a	n/a	n/a	n/a	n/a
1991.044	0.0	keypress	4	1991044	n/a	n/a	n/a	n/a	n/a	n/a
1992.311	0.0	nontarget	5	1992311	q	0	17.0	n/a	n/a	10
1994.544	0.0	target	6	1994544	c	1	31.0	1	0.4522976	10
1994.827	0.5	BAD keypress	2	1994827	n/a	n/a	n/a	n/a	n/a	n/a
1995.077	0.0	keypress	4	1995077	n/a	n/a	n/a	n/a	n/a	n/a
1996.61	0.0	nontarget	5	1996610	v	0	33.0	n/a	n/a	10
1999.094	0.0	nontarget	5	1999094	u	0	46.0	n/a	n/a	10
2001.477	0.0	nontarget	5	2001477	r	0	40.0	n/a	n/a	10
2003.593	0.0	nontarget	5	2003593	ö	0	24.0	n/a	n/a	10
2005.743	0.0	nontarget	5	2005743	w	0	26.0	n/a	n/a	10
2008.243	0.0	target	6	2008243	y	1	47.0	1	0.4159383	10
2008.46	0.5	BAD keypress	2	2008460	n/a	n/a	n/a	n/a	n/a	n/a
2008.71	0.0	keypress	4	2008710	n/a	n/a	n/a	n/a	n/a	n/a
2010.293	0.0	nontarget	5	2010293	l	0	36.0	n/a	n/a	10
2012.676	0.0	nontarget	5	2012676	v	0	40.0	n/a	n/a	10
2015.076	0.0	nontarget	5	2015076	w	0	41.0	n/a	n/a	10
2017.21	0.0	nontarget	5	2017210	n	0	25.0	n/a	n/a	10
2018.31	84.2460000000001	BAD_break	3	2018310	n/a	n/a	n/a	n/a	n/a	n/a
2102.806	0.5	BAD keypress	2	2102806	n/a	n/a	n/a	n/a	n/a	n/a
2103.056	0.0	keypress	4	2103056	n/a	n/a	n/a	n/a	n/a	n/a
2104.856	0.0	target	6	2104856	i	1	50.0	1	0.4049401	11
2105.106	0.5	BAD keypress	2	2105106	n/a	n/a	n/a	n/a	n/a	n/a
2105.356	0.0	keypress	4	2105356	n/a	n/a	n/a	n/a	n/a	n/a
2106.972	0.0	nontarget	5	2106972	d	0	37.0	n/a	n/a	11
2109.022	0.0	nontarget	5	2109022	s	0	20.0	n/a	n/a	11
2111.255	0.0	nontarget	5	2111255	ä	0	31.0	n/a	n/a	11
2113.805	0.0	target	6	2113805	k	1	50.0	1	0.3988097	11
2114.056	0.5	BAD keypress	2	2114056	n/a	n/a	n/a	n/a	n/a	n/a
2114.306	0.0	keypress	4	2114306	n/a	n/a	n/a	n/a	n/a	n/a
2115.789	0.0	nontarget	5	2115789	z	0	29.0	n/a	n/a	11
2117.888	0.0	target	6	2117888	e	1	23.0	1	0.3792539	11
2118.122	0.5	BAD keypress	2	2118122	n/a	n/a	n/a	n/a	n/a	n/a
2118.372	0.0	keypress	4	2118372	n/a	n/a	n/a	n/a	n/a	n/a
2120.088	0.0	nontarget	5	2120088	r	0	44.0	n/a	n/a	11
2122.122	0.0	nontarget	5	2122122	d	0	19.0	n/a	n/a	11
2124.238	0.0	nontarget	5	2124238	b	0	24.0	n/a	n/a	11
2126.555	0.0	nontarget	5	2126555	i	0	36.0	n/a	n/a	11
2128.655	0.0	nontarget	5	2128655	e	0	23.0	n/a	n/a	11
2130.605	0.0	target	6	2130605	k	1	14.0	1	0.4303512	11
2130.871	0.5	BAD keypress	2	2130871	n/a	n/a	n/a	n/a	n/a	n/a
2131.121	0.0	keypress	4	2131121	n/a	n/a	n/a	n/a	n/a	n/a
2132.421	0.0	nontarget	5	2132421	k	0	19.0	n/a	n/a	11
2134.671	0.0	nontarget	5	2134671	w	0	32.0	n/a	n/a	11
2136.738	0.0	nontarget	5	2136738	i	0	21.0	n/a	n/a	11
2138.938	0.0	nontarget	5	2138938	u	0	29.0	n/a	n/a	11
2141.454	0.0	nontarget	5	2141454	ä	0	48.0	n/a	n/a	11
2143.687	0.0	nontarget	5	2143687	n	0	31.0	n/a	n/a	11
2145.887	0.0	nontarget	5	2145887	w	0	29.0	n/a	n/a	11
2147.837	0.0	nontarget	5	2147837	ß	0	14.0	n/a	n/a	11
2150.17	0.0	target	6	2150170	ä	1	37.0	1	0.3832356	11
2150.387	0.5	BAD keypress	2	2150387	n/a	n/a	n/a	n/a	n/a	n/a
2150.637	0.0	keypress	4	2150637	n/a	n/a	n/a	n/a	n/a	n/a
2151.937	0.0	nontarget	5	2151937	n	0	19.0	n/a	n/a	11
2154.47	0.0	nontarget	5	2154470	t	0	49.0	n/a	n/a	11
2156.52	0.0	target	6	2156520	t	1	20.0	1	0.401137	11
2156.737	0.5	BAD keypress	2	2156737	n/a	n/a	n/a	n/a	n/a	n/a
2156.987	0.0	keypress	4	2156987	n/a	n/a	n/a	n/a	n/a	n/a
2158.37	0.0	nontarget	5	2158370	ü	0	24.0	n/a	n/a	11
2160.337	0.0	nontarget	5	2160337	o	0	15.0	n/a	n/a	11
2162.62	0.0	nontarget	5	2162620	v	0	34.0	n/a	n/a	11
2164.92	0.0	nontarget	5	2164920	t	0	35.0	n/a	n/a	11
2167.27	0.0	nontarget	5	2167270	l	0	38.0	n/a	n/a	11
2169.336	0.0	nontarget	5	2169336	e	0	21.0	n/a	n/a	11
2171.736	0.0	nontarget	5	2171736	y	0	41.0	n/a	n/a	11
2174.269	0.0	nontarget	5	2174269	i	0	49.0	n/a	n/a	11
2176.436	0.0	nontarget	5	2176436	g	0	27.0	n/a	n/a	11
2178.419	0.0	nontarget	5	2178419	z	0	16.0	n/a	n/a	11
2180.769	0.0	nontarget	5	2180769	ä	0	38.0	n/a	n/a	11
2183.119	0.0	nontarget	5	2183119	c	0	38.0	n/a	n/a	11
2185.419	0.0	nontarget	5	2185419	u	0	35.0	n/a	n/a	11
2187.552	0.0	nontarget	5	2187552	o	0	25.0	n/a	n/a	11
2189.969	0.0	nontarget	5	2189969	q	0	42.0	n/a	n/a	11
2192.185	0.0	nontarget	5	2192185	t	0	30.0	n/a	n/a	11
2194.718	0.0	nontarget	5	2194718	l	0	49.0	n/a	n/a	11
2196.702	0.0	target	6	2196702	m	1	16.0	1	0.4248464	11
2196.985	0.5	BAD keypress	2	2196985	n/a	n/a	n/a	n/a	n/a	n/a
2197.235	0.0	keypress	4	2197235	n/a	n/a	n/a	n/a	n/a	n/a
2198.535	0.0	nontarget	5	2198535	n	0	19.0	n/a	n/a	11
2201.068	0.0	nontarget	5	2201068	p	0	49.0	n/a	n/a	11
2203.085	0.0	nontarget	5	2203085	v	0	18.0	n/a	n/a	11
2205.201	0.0	nontarget	5	2205201	a	0	24.0	n/a	n/a	11
2207.268	0.0	target	6	2207268	f	1	21.0	1	0.4338469	11
2207.551	0.5	BAD keypress	2	2207551	n/a	n/a	n/a	n/a	n/a	n/a
2207.801	0.0	keypress	4	2207801	n/a	n/a	n/a	n/a	n/a	n/a
2209.434	0.0	target	6	2209434	u	1	39.0	1	0.3471354	11
2209.651	0.5	BAD keypress	2	2209651	n/a	n/a	n/a	n/a	n/a	n/a
2209.901	0.0	keypress	4	2209901	n/a	n/a	n/a	n/a	n/a	n/a
2211.301	0.0	nontarget	5	2211301	ä	0	25.0	n/a	n/a	11
2213.284	0.0	nontarget	5	2213284	n	0	16.0	n/a	n/a	11
2215.784	0.0	nontarget	5	2215784	t	0	47.0	n/a	n/a	11
2218.317	0.0	nontarget	5	2218317	h	0	49.0	n/a	n/a	11
2220.467	0.0	nontarget	5	2220467	p	0	26.0	n/a	n/a	11
2222.801	0.0	nontarget	5	2222801	u	0	37.0	n/a	n/a	11
2225.05	0.0	nontarget	5	2225050	k	0	32.0	n/a	n/a	11
2227.167	0.0	nontarget	5	2227167	t	0	24.0	n/a	n/a	11
2229.6	0.0	nontarget	5	2229600	b	0	43.0	n/a	n/a	11
2231.834	0.0	target	6	2231834	g	1	31.0	1	0.4426213	11
2232.134	0.5	BAD keypress	2	2232134	n/a	n/a	n/a	n/a	n/a	n/a
2232.384	0.0	keypress	4	2232384	n/a	n/a	n/a	n/a	n/a	n/a
2234.1	0.0	nontarget	5	2234100	c	0	44.0	n/a	n/a	11
2236.317	0.0	nontarget	5	2236317	e	0	30.0	n/a	n/a	11
2238.7	0.0	nontarget	5	2238700	ö	0	40.0	n/a	n/a	11
2240.933	0.0	nontarget	5	2240933	ä	0	31.0	n/a	n/a	11
2243.466	0.0	nontarget	5	2243466	g	0	49.0	n/a	n/a	11
2245.816	0.0	nontarget	5	2245816	d	0	38.0	n/a	n/a	11
2248.133	0.0	nontarget	5	2248133	o	0	36.0	n/a	n/a	11
2249.233	20.482000000000426	BAD_break	3	2249233	n/a	n/a	n/a	n/a	n/a	n/a
2270.215	0.0	nontarget	5	2270215	m	0	45.0	n/a	n/a	12
2272.265	0.0	nontarget	5	2272265	r	0	20.0	n/a	n/a	12
2274.648	0.0	target	6	2274648	w	1	40.0	1	0.4089526	12
2274.898	0.5	BAD keypress	2	2274898	n/a	n/a	n/a	n/a	n/a	n/a
2275.148	0.0	keypress	4	2275148	n/a	n/a	n/a	n/a	n/a	n/a
2276.415	0.0	nontarget	5	2276415	w	0	17.0	n/a	n/a	12
2278.498	0.0	nontarget	5	2278498	m	0	22.0	n/a	n/a	12
2280.481	0.0	nontarget	5	2280481	p	0	16.0	n/a	n/a	12
2282.615	0.0	nontarget	5	2282615	h	0	25.0	n/a	n/a	12
2284.698	0.0	nontarget	5	2284698	w	0	22.0	n/a	n/a	12
2287.214	0.0	target	6	2287214	i	1	48.0	1	0.417898	12
2287.464	0.5	BAD keypress	2	2287464	n/a	n/a	n/a	n/a	n/a	n/a
2287.714	0.0	keypress	4	2287714	n/a	n/a	n/a	n/a	n/a	n/a
2289.131	0.0	nontarget	5	2289131	ü	0	26.0	n/a	n/a	12
2291.431	0.0	nontarget	5	2291431	t	0	35.0	n/a	n/a	12
2293.914	0.0	nontarget	5	2293914	a	0	46.0	n/a	n/a	12
2296.114	0.0	nontarget	5	2296114	i	0	29.0	n/a	n/a	12
2298.614	0.0	nontarget	5	2298614	q	0	47.0	n/a	n/a	12
2300.83	0.0	nontarget	5	2300830	z	0	30.0	n/a	n/a	12
2303.03	0.0	target	6	2303030	n	1	29.0	1	0.4089492	12
2303.297	0.5	BAD keypress	2	2303297	n/a	n/a	n/a	n/a	n/a	n/a
2303.547	0.0	keypress	4	2303547	n/a	n/a	n/a	n/a	n/a	n/a
2304.814	0.0	target	6	2304814	s	1	17.0	1	0.4014752	12
2305.03	0.5	BAD keypress	2	2305030	n/a	n/a	n/a	n/a	n/a	n/a
2305.28	0.0	keypress	4	2305280	n/a	n/a	n/a	n/a	n/a	n/a
2306.697	0.0	target	6	2306697	x	1	26.0	1	0.3582106	12
2306.88	0.5	BAD keypress	2	2306880	n/a	n/a	n/a	n/a	n/a	n/a
2307.13	0.0	keypress	4	2307130	n/a	n/a	n/a	n/a	n/a	n/a
2308.78	0.0	nontarget	5	2308780	c	0	40.0	n/a	n/a	12
2311.18	0.0	nontarget	5	2311180	v	0	41.0	n/a	n/a	12
2313.413	0.0	nontarget	5	2313413	r	0	31.0	n/a	n/a	12
2315.647	0.0	target	6	2315647	ä	1	31.0	1	0.3998888	12
2315.863	0.5	BAD keypress	2	2315863	n/a	n/a	n/a	n/a	n/a	n/a
2316.113	0.0	keypress	4	2316113	n/a	n/a	n/a	n/a	n/a	n/a
2317.93	0.0	nontarget	5	2317930	o	0	50.0	n/a	n/a	12
2320.196	0.0	nontarget	5	2320196	f	0	33.0	n/a	n/a	12
2322.513	0.0	nontarget	5	2322513	a	0	36.0	n/a	n/a	12
2324.663	0.0	target	6	2324663	b	1	26.0	1	0.37497061	12
2324.896	0.5	BAD keypress	2	2324896	n/a	n/a	n/a	n/a	n/a	n/a
2325.146	0.0	keypress	4	2325146	n/a	n/a	n/a	n/a	n/a	n/a
2326.946	0.0	nontarget	5	2326946	s	0	48.0	n/a	n/a	12
2329.413	0.0	nontarget	5	2329413	c	0	45.0	n/a	n/a	12
2331.862	0.0	nontarget	5	2331862	g	0	44.0	n/a	n/a	12
2334.162	0.0	nontarget	5	2334162	k	0	35.0	n/a	n/a	12
2336.629	0.0	nontarget	5	2336629	e	0	45.0	n/a	n/a	12
2338.779	0.0	nontarget	5	2338779	h	0	26.0	n/a	n/a	12
2341.279	0.0	nontarget	5	2341279	q	0	47.0	n/a	n/a	12
2343.779	0.0	nontarget	5	2343779	l	0	47.0	n/a	n/a	12
2346.329	0.0	nontarget	5	2346329	b	0	50.0	n/a	n/a	12
2348.745	0.0	target	6	2348745	e	1	42.0	1	0.4031267	12
2348.962	0.5	BAD keypress	2	2348962	n/a	n/a	n/a	n/a	n/a	n/a
2349.212	0.0	keypress	4	2349212	n/a	n/a	n/a	n/a	n/a	n/a
2350.578	0.0	nontarget	5	2350578	g	0	23.0	n/a	n/a	12
2352.778	0.0	target	6	2352778	y	1	29.0	1	0.4017685	12
2352.995	0.5	BAD keypress	2	2352995	n/a	n/a	n/a	n/a	n/a	n/a
2353.245	0.0	keypress	4	2353245	n/a	n/a	n/a	n/a	n/a	n/a
2354.578	0.0	nontarget	5	2354578	m	0	21.0	n/a	n/a	12
2356.895	0.0	nontarget	5	2356895	u	0	36.0	n/a	n/a	12
2359.145	0.0	nontarget	5	2359145	ß	0	32.0	n/a	n/a	12
2361.645	0.0	nontarget	5	2361645	e	0	47.0	n/a	n/a	12
2364.178	0.0	nontarget	5	2364178	p	0	49.0	n/a	n/a	12
2366.261	0.0	nontarget	5	2366261	k	0	22.0	n/a	n/a	12
2368.694	0.0	nontarget	5	2368694	m	0	43.0	n/a	n/a	12
2370.977	0.0	nontarget	5	2370977	d	0	34.0	n/a	n/a	12
2372.927	0.0	nontarget	5	2372927	g	0	14.0	n/a	n/a	12
2375.161	0.0	nontarget	5	2375161	x	0	31.0	0	0.3699039	12
2375.161	1.0	BAD incorrect	1	2375161	x	0	31.0	0	0.3699039	12
2375.361	0.5	BAD keypress	2	2375361	n/a	n/a	n/a	n/a	n/a	n/a
2375.611	0.0	keypress	4	2375611	n/a	n/a	n/a	n/a	n/a	n/a
2377.527	0.0	nontarget	5	2377527	u	0	25.0	n/a	n/a	12
2379.96	0.0	nontarget	5	2379960	e	0	43.0	n/a	n/a	12
2382.327	0.0	target	6	2382327	n	1	39.0	1	0.4190051	12
2382.577	0.5	BAD keypress	2	2382577	n/a	n/a	n/a	n/a	n/a	n/a
2382.827	0.0	keypress	4	2382827	n/a	n/a	n/a	n/a	n/a	n/a
2384.227	0.0	nontarget	5	2384227	b	0	25.0	n/a	n/a	12
2386.71	0.0	nontarget	5	2386710	t	0	46.0	n/a	n/a	12
2388.927	0.0	nontarget	5	2388927	j	0	30.0	n/a	n/a	12
2391.227	0.0	nontarget	5	2391227	a	0	35.0	n/a	n/a	12
2393.326	0.0	nontarget	5	2393326	m	0	23.0	n/a	n/a	12
2395.81	0.0	nontarget	5	2395810	c	0	46.0	n/a	n/a	12
2397.96	0.0	nontarget	5	2397960	ö	0	26.0	n/a	n/a	12
2400.243	0.0	nontarget	5	2400243	w	0	34.0	n/a	n/a	12
2402.709	0.0	nontarget	5	2402709	m	0	45.0	n/a	n/a	12
2404.743	0.0	target	6	2404743	v	1	19.0	1	0.4498846	12
2405.009	0.5	BAD keypress	2	2405009	n/a	n/a	n/a	n/a	n/a	n/a
2405.259	0.0	keypress	4	2405259	n/a	n/a	n/a	n/a	n/a	n/a
2406.626	0.0	nontarget	5	2406626	n	0	23.0	n/a	n/a	12
2408.876	0.0	nontarget	5	2408876	ü	0	32.0	n/a	n/a	12
2411.226	0.0	nontarget	5	2411226	o	0	38.0	n/a	n/a	12
2413.592	0.0	nontarget	5	2413592	u	0	39.0	n/a	n/a	12
2415.576	0.0	nontarget	5	2415576	ä	0	16.0	n/a	n/a	12
2416.676	18.282000000000156	BAD_break	3	2416676	n/a	n/a	n/a	n/a	n/a	n/a
2435.458	0.0	nontarget	5	2435458	v	0	49.0	n/a	n/a	13
2437.708	0.0	nontarget	5	2437708	i	0	32.0	n/a	n/a	13
2440.208	0.0	nontarget	5	2440208	a	0	47.0	n/a	n/a	13
2442.158	0.0	nontarget	5	2442158	o	0	14.0	n/a	n/a	13
2444.324	0.0	nontarget	5	2444324	ü	0	27.0	n/a	n/a	13
2446.774	0.0	target	6	2446774	t	1	44.0	1	0.4314729	13
2447.041	0.5	BAD keypress	2	2447041	n/a	n/a	n/a	n/a	n/a	n/a
2447.291	0.0	keypress	4	2447291	n/a	n/a	n/a	n/a	n/a	n/a
2448.907	0.0	nontarget	5	2448907	s	0	38.0	n/a	n/a	13
2451.041	0.0	nontarget	5	2451041	ß	0	25.0	n/a	n/a	13
2453.591	0.0	nontarget	5	2453591	h	0	50.0	n/a	n/a	13
2455.707	0.0	nontarget	5	2455707	k	0	24.0	n/a	n/a	13
2457.707	0.0	nontarget	5	2457707	ü	0	17.0	n/a	n/a	13
2460.057	0.0	nontarget	5	2460057	l	0	38.0	n/a	n/a	13
2462.523	0.0	nontarget	5	2462523	ä	0	45.0	n/a	n/a	13
2464.473	0.0	nontarget	5	2464473	n	0	14.0	n/a	n/a	13
2466.923	0.0	nontarget	5	2466923	ö	0	44.0	n/a	n/a	13
2469.473	0.0	nontarget	5	2469473	m	0	50.0	n/a	n/a	13
2471.54	0.0	nontarget	5	2471540	f	0	21.0	n/a	n/a	13
2473.823	0.0	nontarget	5	2473823	a	0	34.0	n/a	n/a	13
2475.99	0.0	target	6	2475990	z	1	27.0	1	0.4621034	13
2476.29	0.5	BAD keypress	2	2476290	n/a	n/a	n/a	n/a	n/a	n/a
2476.54	0.0	keypress	4	2476540	n/a	n/a	n/a	n/a	n/a	n/a
2478.156	0.0	nontarget	5	2478156	j	0	37.0	n/a	n/a	13
2480.439	0.0	nontarget	5	2480439	d	0	34.0	n/a	n/a	13
2482.539	0.0	nontarget	5	2482539	v	0	23.0	n/a	n/a	13
2484.506	0.0	nontarget	5	2484506	t	0	15.0	n/a	n/a	13
2486.572	0.0	nontarget	5	2486572	r	0	21.0	n/a	n/a	13
2488.756	0.0	target	6	2488756	e	1	28.0	1	0.4152268	13
2489.006	0.5	BAD keypress	2	2489006	n/a	n/a	n/a	n/a	n/a	n/a
2489.256	0.0	keypress	4	2489256	n/a	n/a	n/a	n/a	n/a	n/a
2490.706	0.0	nontarget	5	2490706	m	0	28.0	n/a	n/a	13
2492.939	0.0	nontarget	5	2492939	ä	0	31.0	n/a	n/a	13
2495.189	0.0	nontarget	5	2495189	l	0	32.0	n/a	n/a	13
2497.239	0.0	target	6	2497239	p	1	20.0	1	0.4276826	13
2497.522	0.5	BAD keypress	2	2497522	n/a	n/a	n/a	n/a	n/a	n/a
2497.772	0.0	keypress	4	2497772	n/a	n/a	n/a	n/a	n/a	n/a
2499.322	0.0	nontarget	5	2499322	h	0	34.0	n/a	n/a	13
2501.738	0.0	nontarget	5	2501738	k	0	42.0	n/a	n/a	13
2504.238	0.0	target	6	2504238	u	1	47.0	1	0.4194077	13
2504.488	0.5	BAD keypress	2	2504488	n/a	n/a	n/a	n/a	n/a	n/a
2504.738	0.0	keypress	4	2504738	n/a	n/a	n/a	n/a	n/a	n/a
2506.438	0.0	nontarget	5	2506438	ö	0	43.0	n/a	n/a	13
2508.405	0.0	nontarget	5	2508405	n	0	15.0	n/a	n/a	13
2510.938	0.0	nontarget	5	2510938	r	0	49.0	n/a	n/a	13
2513.255	0.0	nontarget	5	2513255	c	0	36.0	n/a	n/a	13
2515.438	0.0	nontarget	5	2515438	k	0	28.0	n/a	n/a	13
2517.871	0.0	nontarget	5	2517871	y	0	43.0	n/a	n/a	13
2520.071	0.0	target	6	2520071	b	1	29.0	1	0.4097354	13
2520.321	0.5	BAD keypress	2	2520321	n/a	n/a	n/a	n/a	n/a	n/a
2520.571	0.0	keypress	4	2520571	n/a	n/a	n/a	n/a	n/a	n/a
2521.971	0.0	nontarget	5	2521971	u	0	25.0	n/a	n/a	13
2524.021	0.0	nontarget	5	2524021	ä	0	20.0	n/a	n/a	13
2526.104	0.0	nontarget	5	2526104	ö	0	22.0	n/a	n/a	13
2528.104	0.0	target	6	2528104	s	1	17.0	1	0.3761925	13
2528.304	0.5	BAD keypress	2	2528304	n/a	n/a	n/a	n/a	n/a	n/a
2528.554	0.0	keypress	4	2528554	n/a	n/a	n/a	n/a	n/a	n/a
2529.987	0.0	target	6	2529987	j	1	27.0	1	0.3968464	13
2530.204	0.5	BAD keypress	2	2530204	n/a	n/a	n/a	n/a	n/a	n/a
2530.454	0.0	keypress	4	2530454	n/a	n/a	n/a	n/a	n/a	n/a
2532.07	0.0	nontarget	5	2532070	ä	0	38.0	n/a	n/a	13
2534.304	0.0	target	6	2534304	ä	1	31.0	1	0.416006	13
2534.537	0.5	BAD keypress	2	2534537	n/a	n/a	n/a	n/a	n/a	n/a
2534.787	0.0	keypress	4	2534787	n/a	n/a	n/a	n/a	n/a	n/a
2536.537	0.0	nontarget	5	2536537	z	0	46.0	n/a	n/a	13
2538.504	0.0	nontarget	5	2538504	j	0	15.0	n/a	n/a	13
2541.053	0.0	nontarget	5	2541053	m	0	50.0	n/a	n/a	13
2543.37	0.0	nontarget	5	2543370	t	0	36.0	n/a	n/a	13
2545.587	0.0	target	6	2545587	ä	1	30.0	1	0.3965155	13
2545.837	0.5	BAD keypress	2	2545837	n/a	n/a	n/a	n/a	n/a	n/a
2546.087	0.0	keypress	4	2546087	n/a	n/a	n/a	n/a	n/a	n/a
2547.603	0.0	nontarget	5	2547603	y	0	32.0	n/a	n/a	13
2549.753	0.0	nontarget	5	2549753	v	0	26.0	n/a	n/a	13
2552.053	0.0	nontarget	5	2552053	f	0	35.0	n/a	n/a	13
2554.419	0.0	nontarget	5	2554419	q	0	39.0	n/a	n/a	13
2556.703	0.0	nontarget	5	2556703	m	0	34.0	n/a	n/a	13
2558.986	0.0	target	6	2558986	s	1	34.0	1	0.4042092	13
2559.236	0.5	BAD keypress	2	2559236	n/a	n/a	n/a	n/a	n/a	n/a
2559.486	0.0	keypress	4	2559486	n/a	n/a	n/a	n/a	n/a	n/a
2561.153	0.0	nontarget	5	2561153	a	0	41.0	n/a	n/a	13
2563.169	0.0	nontarget	5	2563169	b	0	18.0	n/a	n/a	13
2565.702	0.0	nontarget	5	2565702	c	0	49.0	n/a	n/a	13
2568.036	0.0	nontarget	5	2568036	k	0	37.0	n/a	n/a	13
2570.419	0.0	target	6	2570419	d	1	40.0	1	0.4105944	13
2570.669	0.5	BAD keypress	2	2570669	n/a	n/a	n/a	n/a	n/a	n/a
2570.919	0.0	keypress	4	2570919	n/a	n/a	n/a	n/a	n/a	n/a
2572.185	0.0	nontarget	5	2572185	q	0	17.0	n/a	n/a	13
2574.569	0.0	nontarget	5	2574569	b	0	40.0	n/a	n/a	13
2576.519	0.0	nontarget	5	2576519	ü	0	14.0	n/a	n/a	13
2578.685	0.0	nontarget	5	2578685	ä	0	27.0	n/a	n/a	13
2579.785	12.816000000000258	BAD_break	3	2579785	n/a	n/a	n/a	n/a	n/a	n/a
2593.101	0.0	target	6	2593101	f	1	36.0	1	0.4627156	14
2593.401	0.5	BAD keypress	2	2593401	n/a	n/a	n/a	n/a	n/a	n/a
2593.651	0.0	keypress	4	2593651	n/a	n/a	n/a	n/a	n/a	n/a
2595.284	0.0	nontarget	5	2595284	f	0	38.0	0	0.343266	14
2595.284	1.0	BAD incorrect	1	2595284	f	0	38.0	0	0.343266	14
2595.484	0.5	BAD keypress	2	2595484	n/a	n/a	n/a	n/a	n/a	n/a
2595.734	0.0	keypress	4	2595734	n/a	n/a	n/a	n/a	n/a	n/a
2597.551	0.0	target	6	2597551	h	1	19.0	1	0.4925933	14
2597.951	0.5	BAD keypress	2	2597951	n/a	n/a	n/a	n/a	n/a	n/a
2598.201	0.0	keypress	4	2598201	n/a	n/a	n/a	n/a	n/a	n/a
2599.651	0.0	nontarget	5	2599651	ä	0	28.0	n/a	n/a	14
2602.151	0.0	nontarget	5	2602151	h	0	47.0	n/a	n/a	14
2604.634	0.0	target	6	2604634	o	1	46.0	1	0.4491594	14
2604.934	0.5	BAD keypress	2	2604934	n/a	n/a	n/a	n/a	n/a	n/a
2605.184	0.0	keypress	4	2605184	n/a	n/a	n/a	n/a	n/a	n/a
2606.467	0.0	nontarget	5	2606467	u	0	18.0	n/a	n/a	14
2608.734	0.0	nontarget	5	2608734	t	0	33.0	n/a	n/a	14
2611.267	0.0	target	6	2611267	c	1	49.0	1	0.48748899	14
2611.6	0.5	BAD keypress	2	2611600	n/a	n/a	n/a	n/a	n/a	n/a
2611.85	0.0	keypress	4	2611850	n/a	n/a	n/a	n/a	n/a	n/a
2613.5	0.0	nontarget	5	2613500	k	0	40.0	n/a	n/a	14
2615.934	0.0	nontarget	5	2615934	n	0	43.0	n/a	n/a	14
2618.25	0.0	nontarget	5	2618250	c	0	36.0	n/a	n/a	14
2620.5	0.0	nontarget	5	2620500	j	0	32.0	n/a	n/a	14
2622.75	0.0	nontarget	5	2622750	t	0	32.0	n/a	n/a	14
2625.166	0.0	nontarget	5	2625166	y	0	42.0	n/a	n/a	14
2627.266	0.0	nontarget	5	2627266	d	0	23.0	n/a	n/a	14
2629.55	0.0	nontarget	5	2629550	a	0	34.0	n/a	n/a	14
2631.633	0.0	nontarget	5	2631633	m	0	22.0	n/a	n/a	14
2633.933	0.0	nontarget	5	2633933	g	0	35.0	n/a	n/a	14
2636.183	0.0	nontarget	5	2636183	k	0	32.0	n/a	n/a	14
2638.516	0.0	nontarget	5	2638516	q	0	37.0	n/a	n/a	14
2641.032	0.0	nontarget	5	2641032	f	0	48.0	n/a	n/a	14
2643.049	0.0	nontarget	5	2643049	s	0	18.0	n/a	n/a	14
2645.199	0.0	target	6	2645199	c	1	26.0	1	0.4253944	14
2645.482	0.5	BAD keypress	2	2645482	n/a	n/a	n/a	n/a	n/a	n/a
2645.732	0.0	keypress	4	2645732	n/a	n/a	n/a	n/a	n/a	n/a
2647.332	0.0	nontarget	5	2647332	i	0	36.0	n/a	n/a	14
2649.832	0.0	nontarget	5	2649832	x	0	47.0	n/a	n/a	14
2652.249	0.0	target	6	2652249	z	1	42.0	1	0.4471697	14
2652.532	0.5	BAD keypress	2	2652532	n/a	n/a	n/a	n/a	n/a	n/a
2652.782	0.0	keypress	4	2652782	n/a	n/a	n/a	n/a	n/a	n/a
2654.198	0.0	nontarget	5	2654198	l	0	26.0	n/a	n/a	14
2656.248	0.0	nontarget	5	2656248	n	0	20.0	n/a	n/a	14
2658.332	0.0	nontarget	5	2658332	p	0	22.0	n/a	n/a	14
2660.732	0.0	nontarget	5	2660732	y	0	41.0	n/a	n/a	14
2662.948	0.0	nontarget	5	2662948	t	0	30.0	n/a	n/a	14
2665.215	0.0	nontarget	5	2665215	x	0	33.0	n/a	n/a	14
2667.348	0.0	nontarget	5	2667348	v	0	25.0	n/a	n/a	14
2669.848	0.0	nontarget	5	2669848	g	0	47.0	n/a	n/a	14
2671.798	0.0	nontarget	5	2671798	k	0	14.0	n/a	n/a	14
2674.064	0.0	nontarget	5	2674064	d	0	33.0	n/a	n/a	14
2676.514	0.0	nontarget	5	2676514	n	0	44.0	n/a	n/a	14
2678.797	0.0	nontarget	5	2678797	j	0	34.0	n/a	n/a	14
2681.164	0.0	target	6	2681164	r	1	39.0	1	0.4098626	14
2681.414	0.5	BAD keypress	2	2681414	n/a	n/a	n/a	n/a	n/a	n/a
2681.664	0.0	keypress	4	2681664	n/a	n/a	n/a	n/a	n/a	n/a
2682.914	0.0	nontarget	5	2682914	b	0	15.0	n/a	n/a	14
2685.464	0.0	nontarget	5	2685464	d	0	50.0	n/a	n/a	14
2687.664	0.0	nontarget	5	2687664	s	0	29.0	n/a	n/a	14
2689.997	0.0	nontarget	5	2689997	w	0	37.0	n/a	n/a	14
2692.547	0.0	nontarget	5	2692547	k	0	50.0	n/a	n/a	14
2694.547	0.0	nontarget	5	2694547	y	0	17.0	n/a	n/a	14
2696.747	0.0	nontarget	5	2696747	r	0	29.0	n/a	n/a	14
2699.08	0.0	nontarget	5	2699080	j	0	37.0	n/a	n/a	14
2701.446	0.0	target	6	2701446	w	1	39.0	1	0.4300825	14
2701.73	0.5	BAD keypress	2	2701730	n/a	n/a	n/a	n/a	n/a	n/a
2701.98	0.0	keypress	4	2701980	n/a	n/a	n/a	n/a	n/a	n/a
2703.213	0.0	target	6	2703213	n	1	15.0	1	0.4393368	14
2703.496	0.5	BAD keypress	2	2703496	n/a	n/a	n/a	n/a	n/a	n/a
2703.746	0.0	keypress	4	2703746	n/a	n/a	n/a	n/a	n/a	n/a
2705.53	0.0	nontarget	5	2705530	g	0	48.0	n/a	n/a	14
2707.646	0.0	nontarget	5	2707646	x	0	24.0	n/a	n/a	14
2709.696	0.0	nontarget	5	2709696	o	0	20.0	n/a	n/a	14
2711.729	0.0	nontarget	5	2711729	m	0	19.0	n/a	n/a	14
2714.163	0.0	nontarget	5	2714163	z	0	43.0	n/a	n/a	14
2716.679	0.0	nontarget	5	2716679	d	0	48.0	n/a	n/a	14
2718.779	0.0	target	6	2718779	n	1	23.0	1	0.4563696	14
2719.096	0.5	BAD keypress	2	2719096	n/a	n/a	n/a	n/a	n/a	n/a
2719.346	0.0	keypress	4	2719346	n/a	n/a	n/a	n/a	n/a	n/a
2721.146	0.0	nontarget	5	2721146	x	0	49.0	n/a	n/a	14
2723.362	0.0	nontarget	5	2723362	u	0	30.0	n/a	n/a	14
2725.729	0.0	nontarget	5	2725729	o	0	39.0	n/a	n/a	14
2726.829	14.970000000000256	BAD_break	3	2726829	n/a	n/a	n/a	n/a	n/a	n/a
