onset	duration	trial_type	value	sample	stimulus	target	blank_jitter_frames	accuracy	response_time	block
0.0	221.392	BAD_break	3	0	n/a	n/a	n/a	n/a	n/a	n/a
221.892	0.0	target	6	221892	a	1	19.0	1	0.4545513	1
222.375	0.5	BAD keypress	2	222375	n/a	n/a	n/a	n/a	n/a	n/a
222.625	0.0	keypress	4	222625	n/a	n/a	n/a	n/a	n/a	n/a
224.191	0.0	nontarget	5	224191	f	0	34.0	n/a	n/a	1
226.608	0.0	nontarget	5	226608	m	0	42.0	n/a	n/a	1
229.041	0.0	nontarget	5	229041	d	0	43.0	n/a	n/a	1
231.158	0.0	target	6	231158	f	1	24.0	1	0.4516595	1
231.558	0.5	BAD keypress	2	231558	n/a	n/a	n/a	n/a	n/a	n/a
231.808	0.0	keypress	4	231808	n/a	n/a	n/a	n/a	n/a	n/a
233.091	0.0	nontarget	5	233091	w	0	18.0	n/a	n/a	1
235.274	0.0	nontarget	5	235274	y	0	28.0	n/a	n/a	1
237.541	0.0	nontarget	5	237541	u	0	33.0	n/a	n/a	1
239.857	0.0	nontarget	5	239857	b	0	36.0	n/a	n/a	1
242.257	0.0	nontarget	5	242257	t	0	41.0	n/a	n/a	1
244.441	0.0	target	6	244441	g	1	28.0	1	0.3840261	1
244.807	0.5	BAD keypress	2	244807	n/a	n/a	n/a	n/a	n/a	n/a
245.057	0.0	keypress	4	245057	n/a	n/a	n/a	n/a	n/a	n/a
246.457	0.0	nontarget	5	246457	r	0	25.0	n/a	n/a	1
248.44	0.0	nontarget	5	248440	ä	0	16.0	n/a	n/a	1
250.44	0.0	target	6	250440	f	1	17.0	1	0.4478938	1
250.79	0.5	BAD keypress	2	250790	n/a	n/a	n/a	n/a	n/a	n/a
251.04	0.0	keypress	4	251040	n/a	n/a	n/a	n/a	n/a	n/a
252.607	0.0	nontarget	5	252607	n	0	34.0	n/a	n/a	1
254.657	0.0	nontarget	5	254657	z	0	20.0	n/a	n/a	1
256.623	0.0	target	6	256623	a	1	15.0	1	0.3764912	1
256.907	0.5	BAD keypress	2	256907	n/a	n/a	n/a	n/a	n/a	n/a
257.157	0.0	keypress	4	257157	n/a	n/a	n/a	n/a	n/a	n/a
258.707	0.0	nontarget	5	258707	h	0	33.0	n/a	n/a	1
260.973	0.0	nontarget	5	260973	ä	0	33.0	n/a	n/a	1
263.19	0.0	nontarget	5	263190	n	0	30.0	n/a	n/a	1
265.156	0.0	nontarget	5	265156	l	0	15.0	n/a	n/a	1
267.34	0.0	nontarget	5	267340	p	0	28.0	n/a	n/a	1
269.623	0.0	nontarget	5	269623	c	0	34.0	n/a	n/a	1
271.889	0.0	nontarget	5	271889	w	0	33.0	n/a	n/a	1
274.273	0.0	nontarget	5	274273	s	0	40.0	n/a	n/a	1
276.439	0.0	nontarget	5	276439	z	0	27.0	n/a	n/a	1
278.672	0.0	nontarget	5	278672	d	0	31.0	n/a	n/a	1
280.906	0.0	nontarget	5	280906	g	0	31.0	n/a	n/a	1
283.106	0.0	nontarget	5	283106	y	0	29.0	n/a	n/a	1
285.455	0.0	nontarget	5	285455	z	0	38.0	n/a	n/a	1
287.905	0.0	nontarget	5	287905	t	0	44.0	n/a	n/a	1
290.105	0.0	nontarget	5	290105	a	0	29.0	n/a	n/a	1
292.638	0.0	target	6	292638	j	1	49.0	1	0.4230171	1
292.939	0.5	BAD keypress	2	292939	n/a	n/a	n/a	n/a	n/a	n/a
293.189	0.0	keypress	4	293189	n/a	n/a	n/a	n/a	n/a	n/a
294.955	0.0	nontarget	5	294955	o	0	47.0	n/a	n/a	1
297.488	0.0	nontarget	5	297488	d	0	49.0	n/a	n/a	1
299.971	0.0	target	6	299971	o	1	46.0	1	0.3694328	1
300.222	0.5	BAD keypress	2	300222	n/a	n/a	n/a	n/a	n/a	n/a
300.472	0.0	keypress	4	300472	n/a	n/a	n/a	n/a	n/a	n/a
301.705	0.0	nontarget	5	301705	v	0	14.0	n/a	n/a	1
304.121	0.0	nontarget	5	304121	ö	0	42.0	n/a	n/a	1
306.171	0.0	nontarget	5	306171	u	0	20.0	n/a	n/a	1
308.288	0.0	nontarget	5	308288	ü	0	24.0	n/a	n/a	1
310.738	0.0	nontarget	5	310738	f	0	44.0	n/a	n/a	1
313.171	0.0	nontarget	5	313171	j	0	43.0	n/a	n/a	1
315.171	0.0	nontarget	5	315171	ß	0	17.0	n/a	n/a	1
317.237	0.0	nontarget	5	317237	ä	0	21.0	n/a	n/a	1
319.221	0.0	nontarget	5	319221	c	0	16.0	n/a	n/a	1
321.22	0.0	target	6	321220	u	1	17.0	1	0.351089	1
321.471	0.5	BAD keypress	2	321471	n/a	n/a	n/a	n/a	n/a	n/a
321.721	0.0	keypress	4	321721	n/a	n/a	n/a	n/a	n/a	n/a
323.087	0.0	target	6	323087	z	1	22.0	1	0.3563161	1
323.354	0.5	BAD keypress	2	323354	n/a	n/a	n/a	n/a	n/a	n/a
323.604	0.0	keypress	4	323604	n/a	n/a	n/a	n/a	n/a	n/a
325.07	0.0	target	6	325070	s	1	29.0	1	0.3888955	1
325.337	0.5	BAD keypress	2	325337	n/a	n/a	n/a	n/a	n/a	n/a
325.587	0.0	keypress	4	325587	n/a	n/a	n/a	n/a	n/a	n/a
326.92	0.0	nontarget	5	326920	j	0	21.0	n/a	n/a	1
329.053	0.0	nontarget	5	329053	i	0	25.0	n/a	n/a	1
331.22	0.0	nontarget	5	331220	d	0	27.0	n/a	n/a	1
333.687	0.0	nontarget	5	333687	l	0	45.0	n/a	n/a	1
336.22	0.0	nontarget	5	336220	c	0	49.0	n/a	n/a	1
338.42	0.0	nontarget	5	338420	ö	0	29.0	n/a	n/a	1
340.853	0.0	nontarget	5	340853	y	0	43.0	n/a	n/a	1
343.253	0.0	nontarget	5	343253	f	0	41.0	n/a	n/a	1
345.719	0.0	nontarget	5	345719	b	0	45.0	n/a	n/a	1
348.119	0.0	nontarget	5	348119	x	0	41.0	n/a	n/a	1
350.486	0.0	nontarget	5	350486	i	0	39.0	n/a	n/a	1
352.886	0.0	nontarget	5	352886	j	0	41.0	n/a	n/a	1
355.436	0.0	nontarget	5	355436	h	0	50.0	n/a	n/a	1
357.602	0.0	nontarget	5	357602	x	0	27.0	n/a	n/a	1
359.869	0.0	nontarget	5	359869	w	0	33.0	n/a	n/a	1
362.335	0.0	nontarget	5	362335	m	0	45.0	n/a	n/a	1
364.802	0.0	nontarget	5	364802	c	0	45.0	n/a	n/a	1
366.952	0.0	nontarget	5	366952	o	0	26.0	n/a	n/a	1
368.052	15.231999999999973	BAD_break	3	368052	n/a	n/a	n/a	n/a	n/a	n/a
383.784	0.0	nontarget	5	383784	b	0	40.0	n/a	n/a	2
386.201	0.0	nontarget	5	386201	a	0	42.0	n/a	n/a	2
388.434	0.0	target	6	388434	q	1	31.0	1	0.3488321	2
388.684	0.5	BAD keypress	2	388684	n/a	n/a	n/a	n/a	n/a	n/a
388.934	0.0	keypress	4	388934	n/a	n/a	n/a	n/a	n/a	n/a
390.601	0.0	nontarget	5	390601	ß	0	41.0	n/a	n/a	2
392.751	0.0	target	6	392751	u	1	26.0	1	0.3681051	2
393.034	0.5	BAD keypress	2	393034	n/a	n/a	n/a	n/a	n/a	n/a
393.284	0.0	keypress	4	393284	n/a	n/a	n/a	n/a	n/a	n/a
394.501	0.0	nontarget	5	394501	q	0	14.0	n/a	n/a	2
396.767	0.0	nontarget	5	396767	m	0	33.0	n/a	n/a	2
399.05	0.0	target	6	399050	g	1	34.0	1	0.3879137	2
399.334	0.5	BAD keypress	2	399334	n/a	n/a	n/a	n/a	n/a	n/a
399.584	0.0	keypress	4	399584	n/a	n/a	n/a	n/a	n/a	n/a
400.85	0.0	nontarget	5	400850	f	0	17.0	n/a	n/a	2
403.35	0.0	nontarget	5	403350	t	0	47.0	n/a	n/a	2
405.767	0.0	nontarget	5	405767	ü	0	42.0	n/a	n/a	2
407.933	0.0	nontarget	5	407933	p	0	27.0	n/a	n/a	2
409.917	0.0	target	6	409917	u	1	16.0	1	0.4491111	2
410.233	0.5	BAD keypress	2	410233	n/a	n/a	n/a	n/a	n/a	n/a
410.483	0.0	keypress	4	410483	n/a	n/a	n/a	n/a	n/a	n/a
412.083	0.0	nontarget	5	412083	z	0	37.0	n/a	n/a	2
414.333	0.0	nontarget	5	414333	ö	0	32.0	n/a	n/a	2
416.316	0.0	nontarget	5	416316	q	0	16.0	n/a	n/a	2
418.383	0.0	nontarget	5	418383	ü	0	21.0	n/a	n/a	2
420.883	0.0	nontarget	5	420883	t	0	47.0	n/a	n/a	2
423.049	0.0	nontarget	5	423049	p	0	27.0	n/a	n/a	2
425.449	0.0	nontarget	5	425449	a	0	41.0	n/a	n/a	2
427.732	0.0	nontarget	5	427732	w	0	34.0	n/a	n/a	2
429.932	0.0	nontarget	5	429932	c	0	29.0	n/a	n/a	2
432.516	0.0	nontarget	5	432516	h	0	49.0	n/a	n/a	2
434.749	0.0	nontarget	5	434749	ß	0	31.0	n/a	n/a	2
436.899	0.0	nontarget	5	436899	f	0	26.0	n/a	n/a	2
438.899	0.0	nontarget	5	438899	v	0	17.0	n/a	n/a	2
441.432	0.0	nontarget	5	441432	y	0	49.0	n/a	n/a	2
443.665	0.0	nontarget	5	443665	q	0	31.0	n/a	n/a	2
445.865	0.0	nontarget	5	445865	l	0	29.0	n/a	n/a	2
448.082	0.0	nontarget	5	448082	h	0	30.0	n/a	n/a	2
450.531	0.0	target	6	450531	t	1	44.0	1	0.3914663	2
450.798	0.5	BAD keypress	2	450798	n/a	n/a	n/a	n/a	n/a	n/a
451.048	0.0	keypress	4	451048	n/a	n/a	n/a	n/a	n/a	n/a
452.448	0.0	target	6	452448	y	1	25.0	1	0.3627116	2
452.665	0.5	BAD keypress	2	452665	n/a	n/a	n/a	n/a	n/a	n/a
452.915	0.0	keypress	4	452915	n/a	n/a	n/a	n/a	n/a	n/a
454.365	0.0	target	6	454365	v	1	27.0	1	0.3500661	2
454.598	0.5	BAD keypress	2	454598	n/a	n/a	n/a	n/a	n/a	n/a
454.848	0.0	keypress	4	454848	n/a	n/a	n/a	n/a	n/a	n/a
456.081	0.0	target	6	456081	ä	1	15.0	1	0.4253283	2
456.365	0.5	BAD keypress	2	456365	n/a	n/a	n/a	n/a	n/a	n/a
456.615	0.0	keypress	4	456615	n/a	n/a	n/a	n/a	n/a	n/a
457.848	0.0	nontarget	5	457848	d	0	15.0	n/a	n/a	2
460.398	0.0	nontarget	5	460398	f	0	50.0	n/a	n/a	2
462.914	0.0	nontarget	5	462914	l	0	48.0	n/a	n/a	2
465.131	0.0	target	6	465131	k	1	30.0	1	0.4951333	2
465.464	0.5	BAD keypress	2	465464	n/a	n/a	n/a	n/a	n/a	n/a
465.714	0.0	keypress	4	465714	n/a	n/a	n/a	n/a	n/a	n/a
467.031	0.0	nontarget	5	467031	t	0	20.0	n/a	n/a	2
469.497	0.0	nontarget	5	469497	n	0	45.0	n/a	n/a	2
471.48	0.0	nontarget	5	471480	ö	0	16.0	n/a	n/a	2
473.63	0.0	nontarget	5	473630	c	0	26.0	n/a	n/a	2
476.08	0.0	nontarget	5	476080	d	0	44.0	n/a	n/a	2
478.197	0.0	nontarget	5	478197	m	0	24.0	n/a	n/a	2
480.463	0.0	target	6	480463	s	1	33.0	1	0.3614171	2
480.68	0.5	BAD keypress	2	480680	n/a	n/a	n/a	n/a	n/a	n/a
480.93	0.0	keypress	4	480930	n/a	n/a	n/a	n/a	n/a	n/a
482.197	0.0	nontarget	5	482197	b	0	17.0	n/a	n/a	2
484.413	0.0	nontarget	5	484413	d	0	30.0	n/a	n/a	2
486.38	0.0	nontarget	5	486380	o	0	15.0	n/a	n/a	2
488.846	0.0	target	6	488846	x	1	45.0	1	0.3299597	2
489.013	0.5	BAD keypress	2	489013	n/a	n/a	n/a	n/a	n/a	n/a
489.263	0.0	keypress	4	489263	n/a	n/a	n/a	n/a	n/a	n/a
490.596	0.0	nontarget	5	490596	c	0	21.0	n/a	n/a	2
492.58	0.0	nontarget	5	492580	ß	0	16.0	n/a	n/a	2
494.696	0.0	nontarget	5	494696	p	0	24.0	n/a	n/a	2
496.896	0.0	nontarget	5	496896	g	0	29.0	n/a	n/a	2
498.896	0.0	nontarget	5	498896	d	0	17.0	n/a	n/a	2
501.346	0.0	target	6	501346	q	1	44.0	1	0.3576782	2
501.546	0.5	BAD keypress	2	501546	n/a	n/a	n/a	n/a	n/a	n/a
501.796	0.0	keypress	4	501796	n/a	n/a	n/a	n/a	n/a	n/a
503.329	0.0	nontarget	5	503329	y	0	33.0	0	0.3422502	2
503.329	1.0	BAD incorrect	1	503329	y	0	33.0	0	0.3422502	2
503.513	0.5	BAD keypress	2	503513	n/a	n/a	n/a	n/a	n/a	n/a
503.763	0.0	keypress	4	503763	n/a	n/a	n/a	n/a	n/a	n/a
506.079	0.0	target	6	506079	h	1	49.0	1	0.4082577	2
506.346	0.5	BAD keypress	2	506346	n/a	n/a	n/a	n/a	n/a	n/a
506.596	0.0	keypress	4	506596	n/a	n/a	n/a	n/a	n/a	n/a
508.212	0.0	nontarget	5	508212	k	0	37.0	n/a	n/a	2
510.495	0.0	nontarget	5	510495	l	0	34.0	n/a	n/a	2
512.495	0.0	nontarget	5	512495	e	0	17.0	n/a	n/a	2
515.029	0.0	target	6	515029	v	1	49.0	1	0.3380147	2
515.212	0.5	BAD keypress	2	515212	n/a	n/a	n/a	n/a	n/a	n/a
515.462	0.0	keypress	4	515462	n/a	n/a	n/a	n/a	n/a	n/a
516.728	0.0	nontarget	5	516728	p	0	17.0	n/a	n/a	2
518.762	0.0	nontarget	5	518762	v	0	19.0	n/a	n/a	2
520.778	0.0	nontarget	5	520778	ö	0	18.0	n/a	n/a	2
522.795	0.0	nontarget	5	522795	y	0	18.0	n/a	n/a	2
525.178	0.0	nontarget	5	525178	n	0	40.0	n/a	n/a	2
526.278	19.198999999999955	BAD_break	3	526278	n/a	n/a	n/a	n/a	n/a	n/a
545.977	0.0	nontarget	5	545977	q	0	22.0	n/a	n/a	3
548.36	0.0	nontarget	5	548360	t	0	40.0	n/a	n/a	3
550.477	0.0	target	6	550477	o	1	24.0	1	0.4871919	3
550.844	0.5	BAD keypress	2	550844	n/a	n/a	n/a	n/a	n/a	n/a
551.094	0.0	keypress	4	551094	n/a	n/a	n/a	n/a	n/a	n/a
552.344	0.0	target	6	552344	p	1	16.0	1	0.4124981	3
552.61	0.5	BAD keypress	2	552610	n/a	n/a	n/a	n/a	n/a	n/a
552.86	0.0	keypress	4	552860	n/a	n/a	n/a	n/a	n/a	n/a
554.577	0.0	target	6	554577	d	1	44.0	1	0.3551169	3
554.777	0.5	BAD keypress	2	554777	n/a	n/a	n/a	n/a	n/a	n/a
555.027	0.0	keypress	4	555027	n/a	n/a	n/a	n/a	n/a	n/a
556.493	0.0	target	6	556493	i	1	28.0	1	0.4864032	3
556.81	0.5	BAD keypress	2	556810	n/a	n/a	n/a	n/a	n/a	n/a
557.06	0.0	keypress	4	557060	n/a	n/a	n/a	n/a	n/a	n/a
558.71	0.0	nontarget	5	558710	c	0	40.0	n/a	n/a	3
560.843	0.0	nontarget	5	560843	b	0	25.0	n/a	n/a	3
563.276	0.0	nontarget	5	563276	l	0	43.0	n/a	n/a	3
565.343	0.0	nontarget	5	565343	g	0	21.0	n/a	n/a	3
567.676	0.0	nontarget	5	567676	r	0	37.0	n/a	n/a	3
569.743	0.0	nontarget	5	569743	k	0	21.0	n/a	n/a	3
572.059	0.0	nontarget	5	572059	n	0	36.0	n/a	n/a	3
574.143	0.0	nontarget	5	574143	q	0	22.0	n/a	n/a	3
576.343	0.0	target	6	576343	s	1	29.0	1	0.3639906	3
576.543	0.5	BAD keypress	2	576543	n/a	n/a	n/a	n/a	n/a	n/a
576.793	0.0	keypress	4	576793	n/a	n/a	n/a	n/a	n/a	n/a
578.309	0.0	nontarget	5	578309	l	0	32.0	n/a	n/a	3
580.626	0.0	nontarget	5	580626	ä	0	36.0	n/a	n/a	3
582.692	0.0	nontarget	5	582692	p	0	21.0	n/a	n/a	3
584.959	0.0	nontarget	5	584959	k	0	33.0	n/a	n/a	3
587.142	0.0	nontarget	5	587142	r	0	28.0	n/a	n/a	3
589.392	0.0	nontarget	5	589392	o	0	32.0	n/a	n/a	3
591.342	0.0	nontarget	5	591342	w	0	14.0	n/a	n/a	3
593.508	0.0	nontarget	5	593508	d	0	27.0	n/a	n/a	3
596.008	0.0	nontarget	5	596008	v	0	47.0	n/a	n/a	3
598.142	0.0	nontarget	5	598142	o	0	25.0	n/a	n/a	3
600.525	0.0	nontarget	5	600525	e	0	40.0	n/a	n/a	3
602.975	0.0	nontarget	5	602975	j	0	44.0	n/a	n/a	3
605.141	0.0	target	6	605141	c	1	27.0	1	0.4752879	3
605.441	0.5	BAD keypress	2	605441	n/a	n/a	n/a	n/a	n/a	n/a
605.691	0.0	keypress	4	605691	n/a	n/a	n/a	n/a	n/a	n/a
606.991	0.0	nontarget	5	606991	r	0	19.0	n/a	n/a	3
609.491	0.0	nontarget	5	609491	p	0	47.0	n/a	n/a	3
611.624	0.0	nontarget	5	611624	q	0	25.0	n/a	n/a	3
613.708	0.0	nontarget	5	613708	n	0	22.0	n/a	n/a	3
616.157	0.0	nontarget	5	616157	k	0	44.0	n/a	n/a	3
618.424	0.0	nontarget	5	618424	g	0	33.0	n/a	n/a	3
620.641	0.0	nontarget	5	620641	z	0	30.0	n/a	n/a	3
622.59	0.0	nontarget	5	622590	p	0	14.0	n/a	n/a	3
624.74	0.0	target	6	624740	g	1	26.0	1	0.4588211	3
625.057	0.5	BAD keypress	2	625057	n/a	n/a	n/a	n/a	n/a	n/a
625.307	0.0	keypress	4	625307	n/a	n/a	n/a	n/a	n/a	n/a
626.607	0.0	nontarget	5	626607	i	0	19.0	n/a	n/a	3
628.59	0.0	target	6	628590	d	1	16.0	1	0.4008243	3
628.824	0.5	BAD keypress	2	628824	n/a	n/a	n/a	n/a	n/a	n/a
629.074	0.0	keypress	4	629074	n/a	n/a	n/a	n/a	n/a	n/a
630.44	0.0	nontarget	5	630440	l	0	23.0	n/a	n/a	3
632.99	0.0	target	6	632990	n	1	50.0	1	0.3686551	3
633.173	0.5	BAD keypress	2	633173	n/a	n/a	n/a	n/a	n/a	n/a
633.423	0.0	keypress	4	633423	n/a	n/a	n/a	n/a	n/a	n/a
634.923	0.0	nontarget	5	634923	z	0	31.0	n/a	n/a	3
637.023	0.0	nontarget	5	637023	r	0	23.0	n/a	n/a	3
639.24	0.0	nontarget	5	639240	l	0	30.0	n/a	n/a	3
641.323	0.0	nontarget	5	641323	g	0	22.0	n/a	n/a	3
643.506	0.0	nontarget	5	643506	a	0	28.0	n/a	n/a	3
645.706	0.0	nontarget	5	645706	c	0	29.0	n/a	n/a	3
648.089	0.0	nontarget	5	648089	s	0	40.0	n/a	n/a	3
650.206	0.0	nontarget	5	650206	j	0	24.0	n/a	n/a	3
652.623	0.0	nontarget	5	652623	u	0	42.0	n/a	n/a	3
655.122	0.0	nontarget	5	655122	t	0	47.0	n/a	n/a	3
657.439	0.0	nontarget	5	657439	ß	0	36.0	n/a	n/a	3
659.756	0.0	nontarget	5	659756	o	0	36.0	n/a	n/a	3
662.189	0.0	nontarget	5	662189	z	0	43.0	n/a	n/a	3
664.389	0.0	nontarget	5	664389	e	0	29.0	n/a	n/a	3
666.639	0.0	nontarget	5	666639	l	0	32.0	n/a	n/a	3
668.655	0.0	nontarget	5	668655	y	0	18.0	n/a	n/a	3
670.672	0.0	nontarget	5	670672	ß	0	18.0	n/a	n/a	3
673.205	0.0	nontarget	5	673205	d	0	49.0	n/a	n/a	3
675.638	0.0	target	6	675638	v	1	43.0	1	0.3577331	3
675.838	0.5	BAD keypress	2	675838	n/a	n/a	n/a	n/a	n/a	n/a
676.088	0.0	keypress	4	676088	n/a	n/a	n/a	n/a	n/a	n/a
677.521	0.0	nontarget	5	677521	v	0	27.0	n/a	n/a	3
679.655	0.0	nontarget	5	679655	b	0	25.0	n/a	n/a	3
682.005	0.0	nontarget	5	682005	s	0	38.0	n/a	n/a	3
684.154	0.0	nontarget	5	684154	o	0	26.0	n/a	n/a	3
686.471	0.0	nontarget	5	686471	g	0	36.0	n/a	n/a	3
688.854	0.0	nontarget	5	688854	e	0	40.0	n/a	n/a	3
689.954	20.74899999999991	BAD_break	3	689954	n/a	n/a	n/a	n/a	n/a	n/a
711.203	0.0	nontarget	5	711203	m	0	48.0	n/a	n/a	4
713.753	0.0	target	6	713753	a	1	50.0	1	0.4002365	4
714.003	0.5	BAD keypress	2	714003	n/a	n/a	n/a	n/a	n/a	n/a
714.253	0.0	keypress	4	714253	n/a	n/a	n/a	n/a	n/a	n/a
715.57	0.0	target	6	715570	ä	1	20.0	1	0.3434726	4
715.753	0.5	BAD keypress	2	715753	n/a	n/a	n/a	n/a	n/a	n/a
716.003	0.0	keypress	4	716003	n/a	n/a	n/a	n/a	n/a	n/a
717.636	0.0	nontarget	5	717636	g	0	39.0	n/a	n/a	4
720.036	0.0	nontarget	5	720036	q	0	41.0	n/a	n/a	4
722.236	0.0	nontarget	5	722236	s	0	29.0	n/a	n/a	4
724.286	0.0	nontarget	5	724286	i	0	20.0	n/a	n/a	4
726.719	0.0	target	6	726719	z	1	43.0	1	0.3772296	4
726.936	0.5	BAD keypress	2	726936	n/a	n/a	n/a	n/a	n/a	n/a
727.186	0.0	keypress	4	727186	n/a	n/a	n/a	n/a	n/a	n/a
728.886	0.0	target	6	728886	ü	1	43.0	1	0.3864294	4
729.086	0.5	BAD keypress	2	729086	n/a	n/a	n/a	n/a	n/a	n/a
729.336	0.0	keypress	4	729336	n/a	n/a	n/a	n/a	n/a	n/a
730.569	0.0	nontarget	5	730569	ü	0	15.0	n/a	n/a	4
733.052	0.0	nontarget	5	733052	c	0	46.0	n/a	n/a	4
735.152	0.0	target	6	735152	n	1	23.0	1	0.455697	4
735.419	0.5	BAD keypress	2	735419	n/a	n/a	n/a	n/a	n/a	n/a
735.669	0.0	keypress	4	735669	n/a	n/a	n/a	n/a	n/a	n/a
737.019	0.0	target	6	737019	u	1	22.0	1	0.3809991	4
737.236	0.5	BAD keypress	2	737236	n/a	n/a	n/a	n/a	n/a	n/a
737.486	0.0	keypress	4	737486	n/a	n/a	n/a	n/a	n/a	n/a
739.002	0.0	nontarget	5	739002	u	0	32.0	n/a	n/a	4
741.102	0.0	nontarget	5	741102	v	0	23.0	n/a	n/a	4
743.202	0.0	nontarget	5	743202	i	0	23.0	n/a	n/a	4
745.152	0.0	nontarget	5	745152	s	0	14.0	n/a	n/a	4
747.602	0.0	nontarget	5	747602	u	0	44.0	n/a	n/a	4
749.785	0.0	nontarget	5	749785	ö	0	28.0	n/a	n/a	4
751.735	0.0	target	6	751735	p	1	14.0	1	0.4000519	4
751.968	0.5	BAD keypress	2	751968	n/a	n/a	n/a	n/a	n/a	n/a
752.218	0.0	keypress	4	752218	n/a	n/a	n/a	n/a	n/a	n/a
753.585	0.0	nontarget	5	753585	n	0	23.0	n/a	n/a	4
755.568	0.0	target	6	755568	j	1	16.0	1	0.4865739	4
755.885	0.5	BAD keypress	2	755885	n/a	n/a	n/a	n/a	n/a	n/a
756.135	0.0	keypress	4	756135	n/a	n/a	n/a	n/a	n/a	n/a
757.785	0.0	nontarget	5	757785	r	0	40.0	n/a	n/a	4
760.334	0.0	nontarget	5	760334	y	0	50.0	n/a	n/a	4
762.634	0.0	nontarget	5	762634	f	0	35.0	n/a	n/a	4
765.134	0.0	nontarget	5	765134	z	0	47.0	n/a	n/a	4
767.117	0.0	nontarget	5	767117	a	0	16.0	n/a	n/a	4
769.484	0.0	nontarget	5	769484	e	0	39.0	n/a	n/a	4
771.651	0.0	nontarget	5	771651	j	0	27.0	n/a	n/a	4
773.934	0.0	nontarget	5	773934	o	0	34.0	n/a	n/a	4
776.117	0.0	nontarget	5	776117	g	0	28.0	n/a	n/a	4
778.084	0.0	nontarget	5	778084	u	0	15.0	n/a	n/a	4
780.217	0.0	nontarget	5	780217	j	0	25.0	n/a	n/a	4
782.233	0.0	nontarget	5	782233	m	0	18.0	n/a	n/a	4
784.367	0.0	nontarget	5	784367	s	0	25.0	n/a	n/a	4
786.733	0.0	target	6	786733	v	1	39.0	1	0.4071448	4
786.983	0.5	BAD keypress	2	786983	n/a	n/a	n/a	n/a	n/a	n/a
787.233	0.0	keypress	4	787233	n/a	n/a	n/a	n/a	n/a	n/a
788.483	0.0	nontarget	5	788483	y	0	16.0	n/a	n/a	4
790.966	0.0	target	6	790966	x	1	46.0	1	0.3658818	4
791.15	0.5	BAD keypress	2	791150	n/a	n/a	n/a	n/a	n/a	n/a
791.4	0.0	keypress	4	791400	n/a	n/a	n/a	n/a	n/a	n/a
792.816	0.0	nontarget	5	792816	a	0	26.0	n/a	n/a	4
795.366	0.0	nontarget	5	795366	ä	0	50.0	n/a	n/a	4
797.783	0.0	nontarget	5	797783	j	0	42.0	n/a	n/a	4
800.166	0.0	nontarget	5	800166	t	0	40.0	n/a	n/a	4
802.133	0.0	nontarget	5	802133	d	0	15.0	n/a	n/a	4
804.099	0.0	nontarget	5	804099	q	0	15.0	n/a	n/a	4
806.432	0.0	nontarget	5	806432	o	0	37.0	n/a	n/a	4
808.632	0.0	nontarget	5	808632	ü	0	29.0	n/a	n/a	4
811.066	0.0	nontarget	5	811066	n	0	43.0	n/a	n/a	4
813.599	0.0	nontarget	5	813599	p	0	49.0	n/a	n/a	4
815.699	0.0	nontarget	5	815699	w	0	23.0	n/a	n/a	4
817.682	0.0	nontarget	5	817682	ß	0	16.0	n/a	n/a	4
819.982	0.0	nontarget	5	819982	f	0	35.0	n/a	n/a	4
822.398	0.0	nontarget	5	822398	a	0	42.0	n/a	n/a	4
824.815	0.0	nontarget	5	824815	c	0	42.0	n/a	n/a	4
827.298	0.0	target	6	827298	j	1	46.0	1	0.4316039	4
827.598	0.5	BAD keypress	2	827598	n/a	n/a	n/a	n/a	n/a	n/a
827.848	0.0	keypress	4	827848	n/a	n/a	n/a	n/a	n/a	n/a
829.465	0.0	nontarget	5	829465	ä	0	38.0	n/a	n/a	4
831.915	0.0	target	6	831915	p	1	44.0	1	0.3588586	4
832.098	0.5	BAD keypress	2	832098	n/a	n/a	n/a	n/a	n/a	n/a
832.348	0.0	keypress	4	832348	n/a	n/a	n/a	n/a	n/a	n/a
833.648	0.0	target	6	833648	ü	1	19.0	1	0.4814537	4
833.948	0.5	BAD keypress	2	833948	n/a	n/a	n/a	n/a	n/a	n/a
834.198	0.0	keypress	4	834198	n/a	n/a	n/a	n/a	n/a	n/a
836.014	0.0	nontarget	5	836014	t	0	50.0	n/a	n/a	4
838.298	0.0	nontarget	5	838298	a	0	34.0	n/a	n/a	4
840.314	0.0	nontarget	5	840314	ü	0	18.0	n/a	n/a	4
842.414	0.0	nontarget	5	842414	k	0	23.0	n/a	n/a	4
844.631	0.0	nontarget	5	844631	i	0	30.0	n/a	n/a	4
846.864	0.0	nontarget	5	846864	x	0	31.0	n/a	n/a	4
849.081	0.0	nontarget	5	849081	y	0	30.0	n/a	n/a	4
851.297	0.0	target	6	851297	u	1	30.0	1	0.4470312	4
851.514	0.5	BAD keypress	2	851514	n/a	n/a	n/a	n/a	n/a	n/a
851.764	0.0	keypress	4	851764	n/a	n/a	n/a	n/a	n/a	n/a
853.53	0.0	nontarget	5	853530	ß	0	47.0	n/a	n/a	4
854.63	31.599000000000046	BAD_break	3	854630	n/a	n/a	n/a	n/a	n/a	n/a
886.729	0.0	nontarget	5	886729	g	0	30.0	n/a	n/a	5
888.679	0.0	nontarget	5	888679	x	0	14.0	n/a	n/a	5
890.979	0.0	nontarget	5	890979	w	0	35.0	n/a	n/a	5
892.929	0.0	nontarget	5	892929	ß	0	14.0	n/a	n/a	5
895.428	0.0	nontarget	5	895428	l	0	47.0	n/a	n/a	5
897.628	0.0	target	6	897628	k	1	29.0	1	0.4806753	5
897.895	0.5	BAD keypress	2	897895	n/a	n/a	n/a	n/a	n/a	n/a
898.145	0.0	keypress	4	898145	n/a	n/a	n/a	n/a	n/a	n/a
899.695	0.0	nontarget	5	899695	n	0	34.0	n/a	n/a	5
901.678	0.0	nontarget	5	901678	x	0	16.0	n/a	n/a	5
904.045	0.0	nontarget	5	904045	u	0	39.0	n/a	n/a	5
906.411	0.0	target	6	906411	i	1	39.0	1	0.4171691	5
906.661	0.5	BAD keypress	2	906661	n/a	n/a	n/a	n/a	n/a	n/a
906.911	0.0	keypress	4	906911	n/a	n/a	n/a	n/a	n/a	n/a
908.445	0.0	nontarget	5	908445	ä	0	33.0	n/a	n/a	5
910.711	0.0	nontarget	5	910711	ß	0	33.0	n/a	n/a	5
912.728	0.0	nontarget	5	912728	a	0	18.0	n/a	n/a	5
914.861	0.0	nontarget	5	914861	x	0	25.0	n/a	n/a	5
917.178	0.0	nontarget	5	917178	e	0	36.0	n/a	n/a	5
919.711	0.0	nontarget	5	919711	m	0	49.0	n/a	n/a	5
921.894	0.0	nontarget	5	921894	a	0	28.0	n/a	n/a	5
924.144	0.0	nontarget	5	924144	p	0	32.0	n/a	n/a	5
926.56	0.0	nontarget	5	926560	t	0	42.0	n/a	n/a	5
928.927	0.0	nontarget	5	928927	v	0	39.0	n/a	n/a	5
931.21	0.0	target	6	931210	o	1	34.0	1	0.4324925	5
931.427	0.5	BAD keypress	2	931427	n/a	n/a	n/a	n/a	n/a	n/a
931.677	0.0	keypress	4	931677	n/a	n/a	n/a	n/a	n/a	n/a
933.193	0.0	target	6	933193	j	1	32.0	1	0.433171	5
933.477	0.5	BAD keypress	2	933477	n/a	n/a	n/a	n/a	n/a	n/a
933.727	0.0	keypress	4	933727	n/a	n/a	n/a	n/a	n/a	n/a
935.127	0.0	nontarget	5	935127	q	0	25.0	n/a	n/a	5
937.493	0.0	nontarget	5	937493	e	0	39.0	n/a	n/a	5
939.993	0.0	target	6	939993	n	1	47.0	1	0.3530159	5
940.177	0.5	BAD keypress	2	940177	n/a	n/a	n/a	n/a	n/a	n/a
940.427	0.0	keypress	4	940427	n/a	n/a	n/a	n/a	n/a	n/a
942.226	0.0	nontarget	5	942226	o	0	49.0	n/a	n/a	5
944.176	0.0	nontarget	5	944176	g	0	14.0	n/a	n/a	5
946.376	0.0	nontarget	5	946376	k	0	29.0	n/a	n/a	5
948.843	0.0	target	6	948843	y	1	45.0	1	0.3987765	5
949.01	0.5	BAD keypress	2	949010	n/a	n/a	n/a	n/a	n/a	n/a
949.26	0.0	keypress	4	949260	n/a	n/a	n/a	n/a	n/a	n/a
950.576	0.0	nontarget	5	950576	s	0	20.0	n/a	n/a	5
952.659	0.0	nontarget	5	952659	o	0	22.0	n/a	n/a	5
954.609	0.0	nontarget	5	954609	ß	0	14.0	n/a	n/a	5
956.576	0.0	nontarget	5	956576	a	0	15.0	n/a	n/a	5
958.659	0.0	target	6	958659	e	1	22.0	1	0.4539568	5
958.942	0.5	BAD keypress	2	958942	n/a	n/a	n/a	n/a	n/a	n/a
959.192	0.0	keypress	4	959192	n/a	n/a	n/a	n/a	n/a	n/a
960.426	0.0	nontarget	5	960426	b	0	15.0	n/a	n/a	5
962.576	0.0	nontarget	5	962576	ü	0	26.0	n/a	n/a	5
964.692	0.0	nontarget	5	964692	u	0	24.0	n/a	n/a	5
966.792	0.0	target	6	966792	y	1	23.0	1	0.4163447	5
966.992	0.5	BAD keypress	2	966992	n/a	n/a	n/a	n/a	n/a	n/a
967.242	0.0	keypress	4	967242	n/a	n/a	n/a	n/a	n/a	n/a
968.792	0.0	target	6	968792	e	1	34.0	1	0.3683445	5
968.959	0.5	BAD keypress	2	968959	n/a	n/a	n/a	n/a	n/a	n/a
969.209	0.0	keypress	4	969209	n/a	n/a	n/a	n/a	n/a	n/a
970.708	0.0	nontarget	5	970708	l	0	31.0	n/a	n/a	5
972.808	0.0	nontarget	5	972808	x	0	23.0	n/a	n/a	5
974.992	0.0	target	6	974992	h	1	28.0	1	0.4241678	5
975.258	0.5	BAD keypress	2	975258	n/a	n/a	n/a	n/a	n/a	n/a
975.508	0.0	keypress	4	975508	n/a	n/a	n/a	n/a	n/a	n/a
976.875	0.0	nontarget	5	976875	h	0	23.0	n/a	n/a	5
979.391	0.0	nontarget	5	979391	v	0	48.0	n/a	n/a	5
981.691	0.0	nontarget	5	981691	q	0	35.0	n/a	n/a	5
984.141	0.0	nontarget	5	984141	l	0	44.0	n/a	n/a	5
986.608	0.0	nontarget	5	986608	t	0	45.0	n/a	n/a	5
989.108	0.0	nontarget	5	989108	f	0	47.0	n/a	n/a	5
991.624	0.0	nontarget	5	991624	ß	0	48.0	n/a	n/a	5
993.691	0.0	nontarget	5	993691	b	0	21.0	n/a	n/a	5
996.191	0.0	nontarget	5	996191	x	0	47.0	n/a	n/a	5
998.591	0.0	nontarget	5	998591	g	0	41.0	n/a	n/a	5
1000.841	0.0	nontarget	5	1000841	a	0	32.0	n/a	n/a	5
1003.107	0.0	nontarget	5	1003107	i	0	33.0	n/a	n/a	5
1005.474	0.0	nontarget	5	1005474	z	0	39.0	n/a	n/a	5
1007.474	0.0	nontarget	5	1007474	n	0	17.0	n/a	n/a	5
1010.007	0.0	target	6	1010007	w	1	49.0	1	0.3827646	5
1010.19	0.5	BAD keypress	2	1010190	n/a	n/a	n/a	n/a	n/a	n/a
1010.44	0.0	keypress	4	1010440	n/a	n/a	n/a	n/a	n/a	n/a
1012.157	0.0	nontarget	5	1012157	c	0	44.0	n/a	n/a	5
1014.69	0.0	nontarget	5	1014690	e	0	49.0	n/a	n/a	5
1016.973	0.0	nontarget	5	1016973	t	0	34.0	n/a	n/a	5
1019.206	0.0	nontarget	5	1019206	h	0	31.0	n/a	n/a	5
1021.673	0.0	nontarget	5	1021673	g	0	45.0	n/a	n/a	5
1023.806	0.0	nontarget	5	1023806	i	0	25.0	n/a	n/a	5
1026.089	0.0	target	6	1026089	g	1	34.0	1	0.4269991	5
1026.339	0.5	BAD keypress	2	1026339	n/a	n/a	n/a	n/a	n/a	n/a
1026.589	0.0	keypress	4	1026589	n/a	n/a	n/a	n/a	n/a	n/a
1027.873	0.0	nontarget	5	1027873	s	0	18.0	n/a	n/a	5
1030.156	0.0	nontarget	5	1030156	p	0	34.0	n/a	n/a	5
1031.256	14.682000000000244	BAD_break	3	1031256	n/a	n/a	n/a	n/a	n/a	n/a
1046.438	0.0	target	6	1046438	r	1	23.0	1	0.5405613	6
1046.822	0.5	BAD keypress	2	1046822	n/a	n/a	n/a	n/a	n/a	n/a
1047.072	0.0	keypress	4	1047072	n/a	n/a	n/a	n/a	n/a	n/a
1048.422	0.0	nontarget	5	1048422	c	0	21.0	n/a	n/a	6
1050.705	0.0	nontarget	5	1050705	ö	0	34.0	n/a	n/a	6
1052.988	0.0	nontarget	5	1052988	j	0	34.0	n/a	n/a	6
1055.338	0.0	target	6	1055338	q	1	38.0	1	0.3763521	6
1055.522	0.5	BAD keypress	2	1055522	n/a	n/a	n/a	n/a	n/a	n/a
1055.772	0.0	keypress	4	1055772	n/a	n/a	n/a	n/a	n/a	n/a
1057.371	0.0	nontarget	5	1057371	k	0	37.0	n/a	n/a	6
1059.688	0.0	target	6	1059688	s	1	36.0	1	0.3783146	6
1059.888	0.5	BAD keypress	2	1059888	n/a	n/a	n/a	n/a	n/a	n/a
1060.138	0.0	keypress	4	1060138	n/a	n/a	n/a	n/a	n/a	n/a
1061.688	0.0	nontarget	5	1061688	l	0	34.0	n/a	n/a	6
1064.171	0.0	nontarget	5	1064171	t	0	46.0	n/a	n/a	6
1066.604	0.0	nontarget	5	1066604	w	0	43.0	n/a	n/a	6
1069.054	0.0	nontarget	5	1069054	d	0	44.0	n/a	n/a	6
1071.204	0.0	nontarget	5	1071204	k	0	26.0	n/a	n/a	6
1073.287	0.0	nontarget	5	1073287	o	0	22.0	n/a	n/a	6
1075.737	0.0	nontarget	5	1075737	e	0	44.0	n/a	n/a	6
1077.82	0.0	target	6	1077820	r	1	22.0	1	0.4205339	6
1078.071	0.5	BAD keypress	2	1078071	n/a	n/a	n/a	n/a	n/a	n/a
1078.321	0.0	keypress	4	1078321	n/a	n/a	n/a	n/a	n/a	n/a
1079.97	0.0	nontarget	5	1079970	m	0	40.0	n/a	n/a	6
1082.387	0.0	nontarget	5	1082387	ä	0	42.0	n/a	n/a	6
1084.57	0.0	nontarget	5	1084570	p	0	28.0	n/a	n/a	6
1086.77	0.0	nontarget	5	1086770	b	0	29.0	n/a	n/a	6
1089.103	0.0	target	6	1089103	o	1	37.0	1	0.4009202	6
1089.337	0.5	BAD keypress	2	1089337	n/a	n/a	n/a	n/a	n/a	n/a
1089.587	0.0	keypress	4	1089587	n/a	n/a	n/a	n/a	n/a	n/a
1091.253	0.0	nontarget	5	1091253	u	0	41.0	n/a	n/a	6
1093.353	0.0	nontarget	5	1093353	a	0	23.0	n/a	n/a	6
1095.853	0.0	nontarget	5	1095853	g	0	47.0	n/a	n/a	6
1098.27	0.0	target	6	1098270	ä	1	42.0	1	0.3540963	6
1098.453	0.5	BAD keypress	2	1098453	n/a	n/a	n/a	n/a	n/a	n/a
1098.703	0.0	keypress	4	1098703	n/a	n/a	n/a	n/a	n/a	n/a
1100.086	0.0	nontarget	5	1100086	u	0	24.0	n/a	n/a	6
1102.353	0.0	nontarget	5	1102353	a	0	33.0	n/a	n/a	6
1104.469	0.0	target	6	1104469	d	1	24.0	1	0.4259388	6
1104.736	0.5	BAD keypress	2	1104736	n/a	n/a	n/a	n/a	n/a	n/a
1104.986	0.0	keypress	4	1104986	n/a	n/a	n/a	n/a	n/a	n/a
1106.486	0.0	nontarget	5	1106486	ü	0	31.0	n/a	n/a	6
1108.686	0.0	nontarget	5	1108686	ö	0	29.0	n/a	n/a	6
1111.186	0.0	nontarget	5	1111186	f	0	47.0	0	0.3329651	6
1111.186	1.0	BAD incorrect	1	1111186	f	0	47.0	0	0.3329651	6
1111.336	0.5	BAD keypress	2	1111336	n/a	n/a	n/a	n/a	n/a	n/a
1111.586	0.0	keypress	4	1111586	n/a	n/a	n/a	n/a	n/a	n/a
1113.519	0.0	nontarget	5	1113519	ß	0	26.0	n/a	n/a	6
1115.669	0.0	nontarget	5	1115669	e	0	26.0	n/a	n/a	6
1118.069	0.0	nontarget	5	1118069	u	0	41.0	n/a	n/a	6
1120.302	0.0	nontarget	5	1120302	h	0	31.0	n/a	n/a	6
1122.435	0.0	nontarget	5	1122435	v	0	25.0	n/a	n/a	6
1124.452	0.0	nontarget	5	1124452	ü	0	18.0	n/a	n/a	6
1126.468	0.0	nontarget	5	1126468	x	0	18.0	n/a	n/a	6
1128.485	0.0	nontarget	5	1128485	p	0	18.0	n/a	n/a	6
1131.035	0.0	nontarget	5	1131035	a	0	50.0	n/a	n/a	6
1133.251	0.0	target	6	1133251	h	1	30.0	1	0.4099155	6
1133.468	0.5	BAD keypress	2	1133468	n/a	n/a	n/a	n/a	n/a	n/a
1133.718	0.0	keypress	4	1133718	n/a	n/a	n/a	n/a	n/a	n/a
1135.335	0.0	nontarget	5	1135335	ä	0	38.0	n/a	n/a	6
1137.818	0.0	nontarget	5	1137818	t	0	46.0	n/a	n/a	6
1140.268	0.0	nontarget	5	1140268	s	0	44.0	n/a	n/a	6
1142.568	0.0	nontarget	5	1142568	b	0	35.0	n/a	n/a	6
1144.868	0.0	nontarget	5	1144868	g	0	35.0	n/a	n/a	6
1147.184	0.0	nontarget	5	1147184	n	0	36.0	n/a	n/a	6
1149.317	0.0	nontarget	5	1149317	f	0	25.0	n/a	n/a	6
1151.817	0.0	nontarget	5	1151817	o	0	47.0	n/a	n/a	6
1153.884	0.0	target	6	1153884	r	1	21.0	1	0.5121454	6
1154.201	0.5	BAD keypress	2	1154201	n/a	n/a	n/a	n/a	n/a	n/a
1154.451	0.0	keypress	4	1154451	n/a	n/a	n/a	n/a	n/a	n/a
1155.784	0.0	nontarget	5	1155784	l	0	21.0	n/a	n/a	6
1157.9	0.0	nontarget	5	1157900	ß	0	24.0	n/a	n/a	6
1160.133	0.0	nontarget	5	1160133	f	0	31.0	n/a	n/a	6
1162.3	0.0	nontarget	5	1162300	ü	0	27.0	n/a	n/a	6
1164.833	0.0	target	6	1164833	a	1	49.0	1	0.3938399	6
1165.017	0.5	BAD keypress	2	1165017	n/a	n/a	n/a	n/a	n/a	n/a
1165.267	0.0	keypress	4	1165267	n/a	n/a	n/a	n/a	n/a	n/a
1166.85	0.0	nontarget	5	1166850	s	0	36.0	n/a	n/a	6
1169.066	0.0	nontarget	5	1169066	h	0	30.0	n/a	n/a	6
1171.316	0.0	nontarget	5	1171316	e	0	32.0	n/a	n/a	6
1173.6	0.0	nontarget	5	1173600	ö	0	34.0	n/a	n/a	6
1175.816	0.0	nontarget	5	1175816	p	0	30.0	n/a	n/a	6
1177.833	0.0	target	6	1177833	y	1	18.0	1	0.4175368	6
1178.066	0.5	BAD keypress	2	1178066	n/a	n/a	n/a	n/a	n/a	n/a
1178.316	0.0	keypress	4	1178316	n/a	n/a	n/a	n/a	n/a	n/a
1179.766	0.0	nontarget	5	1179766	e	0	28.0	n/a	n/a	6
1181.849	0.0	nontarget	5	1181849	ß	0	22.0	n/a	n/a	6
1183.982	0.0	nontarget	5	1183982	r	0	25.0	n/a	n/a	6
1186.049	0.0	nontarget	5	1186049	m	0	21.0	n/a	n/a	6
1188.416	0.0	nontarget	5	1188416	c	0	39.0	n/a	n/a	6
1190.449	0.0	nontarget	5	1190449	b	0	19.0	n/a	n/a	6
1191.549	213.58999999999992	BAD_break	3	1191549	n/a	n/a	n/a	n/a	n/a	n/a
1405.639	0.0	nontarget	5	1405639	o	0	28.0	n/a	n/a	7
1407.973	0.0	nontarget	5	1407973	ä	0	37.0	n/a	n/a	7
1409.923	0.0	nontarget	5	1409923	v	0	14.0	n/a	n/a	7
1412.389	0.0	nontarget	5	1412389	w	0	45.0	n/a	n/a	7
1414.589	0.0	nontarget	5	1414589	j	0	29.0	n/a	n/a	7
1416.706	0.0	nontarget	5	1416706	u	0	24.0	n/a	n/a	7
1418.955	0.0	target	6	1418955	m	1	32.0	1	0.3985653	7
1419.172	0.5	BAD keypress	2	1419172	n/a	n/a	n/a	n/a	n/a	n/a
1419.422	0.0	keypress	4	1419422	n/a	n/a	n/a	n/a	n/a	n/a
1421.072	0.0	nontarget	5	1421072	ö	0	40.0	n/a	n/a	7
1423.172	0.0	nontarget	5	1423172	b	0	23.0	n/a	n/a	7
1425.239	0.0	target	6	1425239	q	1	21.0	1	0.3711808	7
1425.455	0.5	BAD keypress	2	1425455	n/a	n/a	n/a	n/a	n/a	n/a
1425.705	0.0	keypress	4	1425705	n/a	n/a	n/a	n/a	n/a	n/a
1427.322	0.0	nontarget	5	1427322	c	0	38.0	n/a	n/a	7
1429.872	0.0	target	6	1429872	n	1	50.0	1	0.3457308	7
1430.038	0.5	BAD keypress	2	1430038	n/a	n/a	n/a	n/a	n/a	n/a
1430.288	0.0	keypress	4	1430288	n/a	n/a	n/a	n/a	n/a	n/a
1431.505	0.0	nontarget	5	1431505	x	0	14.0	n/a	n/a	7
1433.771	0.0	nontarget	5	1433771	m	0	33.0	n/a	n/a	7
1436.155	0.0	nontarget	5	1436155	ä	0	40.0	n/a	n/a	7
1438.371	0.0	nontarget	5	1438371	r	0	30.0	n/a	n/a	7
1440.421	0.0	nontarget	5	1440421	k	0	20.0	n/a	n/a	7
1442.788	0.0	nontarget	5	1442788	f	0	39.0	n/a	n/a	7
1444.804	0.0	nontarget	5	1444804	m	0	18.0	n/a	n/a	7
1447.004	0.0	nontarget	5	1447004	w	0	29.0	n/a	n/a	7
1449.204	0.0	nontarget	5	1449204	k	0	29.0	n/a	n/a	7
1451.387	0.0	nontarget	5	1451387	r	0	28.0	n/a	n/a	7
1453.904	0.0	nontarget	5	1453904	ö	0	48.0	n/a	n/a	7
1456.254	0.0	nontarget	5	1456254	d	0	38.0	n/a	n/a	7
1458.52	0.0	nontarget	5	1458520	p	0	33.0	n/a	n/a	7
1461.02	0.0	target	6	1461020	n	1	47.0	1	0.3950712	7
1461.22	0.5	BAD keypress	2	1461220	n/a	n/a	n/a	n/a	n/a	n/a
1461.47	0.0	keypress	4	1461470	n/a	n/a	n/a	n/a	n/a	n/a
1462.72	0.0	nontarget	5	1462720	v	0	16.0	n/a	n/a	7
1465.27	0.0	nontarget	5	1465270	ö	0	50.0	n/a	n/a	7
1467.337	0.0	target	6	1467337	e	1	21.0	1	0.3661986	7
1467.503	0.5	BAD keypress	2	1467503	n/a	n/a	n/a	n/a	n/a	n/a
1467.753	0.0	keypress	4	1467753	n/a	n/a	n/a	n/a	n/a	n/a
1469.037	0.0	nontarget	5	1469037	m	0	18.0	n/a	n/a	7
1471.453	0.0	nontarget	5	1471453	c	0	42.0	n/a	n/a	7
1473.803	0.0	nontarget	5	1473803	i	0	38.0	n/a	n/a	7
1476.203	0.0	nontarget	5	1476203	d	0	41.0	n/a	n/a	7
1478.253	0.0	nontarget	5	1478253	ä	0	20.0	n/a	n/a	7
1480.286	0.0	nontarget	5	1480286	t	0	19.0	n/a	n/a	7
1482.403	0.0	nontarget	5	1482403	z	0	24.0	n/a	n/a	7
1484.569	0.0	nontarget	5	1484569	y	0	27.0	n/a	n/a	7
1487.052	0.0	nontarget	5	1487052	l	0	46.0	n/a	n/a	7
1489.402	0.0	nontarget	5	1489402	f	0	38.0	n/a	n/a	7
1491.536	0.0	nontarget	5	1491536	w	0	25.0	n/a	n/a	7
1493.919	0.0	nontarget	5	1493919	n	0	40.0	n/a	n/a	7
1495.902	0.0	nontarget	5	1495902	q	0	16.0	n/a	n/a	7
1497.985	0.0	target	6	1497985	z	1	22.0	1	0.4515809	7
1498.219	0.5	BAD keypress	2	1498219	n/a	n/a	n/a	n/a	n/a	n/a
1498.469	0.0	keypress	4	1498469	n/a	n/a	n/a	n/a	n/a	n/a
1500.219	0.0	nontarget	5	1500219	r	0	46.0	n/a	n/a	7
1502.452	0.0	nontarget	5	1502452	y	0	31.0	n/a	n/a	7
1504.552	0.0	nontarget	5	1504552	x	0	23.0	n/a	n/a	7
1506.952	0.0	nontarget	5	1506952	ß	0	41.0	n/a	n/a	7
1508.951	0.0	nontarget	5	1508951	ä	0	17.0	n/a	n/a	7
1511.401	0.0	nontarget	5	1511401	k	0	44.0	n/a	n/a	7
1513.951	0.0	nontarget	5	1513951	y	0	50.0	n/a	n/a	7
1516.451	0.0	nontarget	5	1516451	ö	0	47.0	n/a	n/a	7
1518.868	0.0	nontarget	5	1518868	g	0	42.0	n/a	n/a	7
1521.334	0.0	nontarget	5	1521334	s	0	45.0	n/a	n/a	7
1523.634	0.0	nontarget	5	1523634	ä	0	35.0	n/a	n/a	7
1526.084	0.0	nontarget	5	1526084	v	0	44.0	n/a	n/a	7
1528.201	0.0	nontarget	5	1528201	r	0	24.0	n/a	n/a	7
1530.734	0.0	nontarget	5	1530734	i	0	49.0	n/a	n/a	7
1532.867	0.0	target	6	1532867	e	1	25.0	1	0.431426	7
1533.117	0.5	BAD keypress	2	1533117	n/a	n/a	n/a	n/a	n/a	n/a
1533.367	0.0	keypress	4	1533367	n/a	n/a	n/a	n/a	n/a	n/a
1535.017	0.0	nontarget	5	1535017	c	0	40.0	n/a	n/a	7
1537.517	0.0	target	6	1537517	p	1	47.0	1	0.4051671	7
1537.784	0.5	BAD keypress	2	1537784	n/a	n/a	n/a	n/a	n/a	n/a
1538.034	0.0	keypress	4	1538034	n/a	n/a	n/a	n/a	n/a	n/a
1539.65	0.0	target	6	1539650	z	1	38.0	1	0.3518902	7
1539.817	0.5	BAD keypress	2	1539817	n/a	n/a	n/a	n/a	n/a	n/a
1540.067	0.0	keypress	4	1540067	n/a	n/a	n/a	n/a	n/a	n/a
1541.5	0.0	target	6	1541500	x	1	27.0	1	0.3418	7
1541.667	0.5	BAD keypress	2	1541667	n/a	n/a	n/a	n/a	n/a	n/a
1541.917	0.0	keypress	4	1541917	n/a	n/a	n/a	n/a	n/a	n/a
1543.717	0.0	nontarget	5	1543717	g	0	49.0	0	0.3490421	7
1543.717	1.0	BAD incorrect	1	1543717	g	0	49.0	0	0.3490421	7
1543.867	0.5	BAD keypress	2	1543867	n/a	n/a	n/a	n/a	n/a	n/a
1544.117	0.0	keypress	4	1544117	n/a	n/a	n/a	n/a	n/a	n/a
1546.167	0.0	nontarget	5	1546167	j	0	33.0	n/a	n/a	7
1548.666	0.0	nontarget	5	1548666	i	0	47.0	n/a	n/a	7
1550.95	0.0	nontarget	5	1550950	e	0	34.0	n/a	n/a	7
1552.05	25.48199999999997	BAD_break	3	1552050	n/a	n/a	n/a	n/a	n/a	n/a
1578.032	0.0	nontarget	5	1578032	f	0	17.0	n/a	n/a	8
1580.115	0.0	nontarget	5	1580115	b	0	22.0	n/a	n/a	8
1582.432	0.0	nontarget	5	1582432	a	0	36.0	n/a	n/a	8
1584.798	0.0	target	6	1584798	ä	1	39.0	1	0.3688349	8
1584.965	0.5	BAD keypress	2	1584965	n/a	n/a	n/a	n/a	n/a	n/a
1585.215	0.0	keypress	4	1585215	n/a	n/a	n/a	n/a	n/a	n/a
1587.048	0.0	nontarget	5	1587048	j	0	50.0	n/a	n/a	8
1589.031	0.0	nontarget	5	1589031	d	0	16.0	n/a	n/a	8
1591.465	0.0	nontarget	5	1591465	a	0	43.0	n/a	n/a	8
1593.598	0.0	nontarget	5	1593598	ä	0	25.0	n/a	n/a	8
1595.798	0.0	nontarget	5	1595798	i	0	29.0	n/a	n/a	8
1597.831	0.0	nontarget	5	1597831	b	0	19.0	n/a	n/a	8
1600.364	0.0	nontarget	5	1600364	x	0	49.0	n/a	n/a	8
1602.814	0.0	nontarget	5	1602814	ä	0	44.0	n/a	n/a	8
1605.131	0.0	target	6	1605131	x	1	36.0	1	0.4190082	8
1605.381	0.5	BAD keypress	2	1605381	n/a	n/a	n/a	n/a	n/a	n/a
1605.631	0.0	keypress	4	1605631	n/a	n/a	n/a	n/a	n/a	n/a
1607.014	0.0	nontarget	5	1607014	e	0	24.0	n/a	n/a	8
1609.264	0.0	nontarget	5	1609264	p	0	32.0	n/a	n/a	8
1611.514	0.0	nontarget	5	1611514	r	0	32.0	n/a	n/a	8
1613.53	0.0	nontarget	5	1613530	c	0	18.0	n/a	n/a	8
1615.563	0.0	nontarget	5	1615563	x	0	19.0	n/a	n/a	8
1617.797	0.0	nontarget	5	1617797	n	0	31.0	n/a	n/a	8
1619.913	0.0	nontarget	5	1619913	ö	0	24.0	n/a	n/a	8
1622.163	0.0	nontarget	5	1622163	h	0	32.0	n/a	n/a	8
1624.463	0.0	target	6	1624463	z	1	35.0	1	0.3971514	8
1624.697	0.5	BAD keypress	2	1624697	n/a	n/a	n/a	n/a	n/a	n/a
1624.947	0.0	keypress	4	1624947	n/a	n/a	n/a	n/a	n/a	n/a
1626.463	0.0	nontarget	5	1626463	k	0	32.0	n/a	n/a	8
1628.596	0.0	target	6	1628596	w	1	25.0	1	0.4398184	8
1628.863	0.5	BAD keypress	2	1628863	n/a	n/a	n/a	n/a	n/a	n/a
1629.113	0.0	keypress	4	1629113	n/a	n/a	n/a	n/a	n/a	n/a
1630.913	0.0	nontarget	5	1630913	z	0	49.0	n/a	n/a	8
1632.963	0.0	target	6	1632963	r	1	20.0	1	0.4250255	8
1633.213	0.5	BAD keypress	2	1633213	n/a	n/a	n/a	n/a	n/a	n/a
1633.463	0.0	keypress	4	1633463	n/a	n/a	n/a	n/a	n/a	n/a
1634.679	0.0	nontarget	5	1634679	c	0	14.0	n/a	n/a	8
1637.196	0.0	target	6	1637196	k	1	48.0	1	0.3996351	8
1637.413	0.5	BAD keypress	2	1637413	n/a	n/a	n/a	n/a	n/a	n/a
1637.663	0.0	keypress	4	1637663	n/a	n/a	n/a	n/a	n/a	n/a
1639.462	0.0	nontarget	5	1639462	e	0	49.0	n/a	n/a	8
1641.979	0.0	nontarget	5	1641979	t	0	48.0	n/a	n/a	8
1644.496	0.0	nontarget	5	1644496	u	0	48.0	n/a	n/a	8
1646.945	0.0	nontarget	5	1646945	v	0	44.0	n/a	n/a	8
1648.929	0.0	target	6	1648929	h	1	16.0	1	0.4420434	8
1649.179	0.5	BAD keypress	2	1649179	n/a	n/a	n/a	n/a	n/a	n/a
1649.429	0.0	keypress	4	1649429	n/a	n/a	n/a	n/a	n/a	n/a
1650.645	0.0	nontarget	5	1650645	q	0	14.0	n/a	n/a	8
1652.862	0.0	nontarget	5	1652862	e	0	30.0	n/a	n/a	8
1655.312	0.0	nontarget	5	1655312	ß	0	44.0	n/a	n/a	8
1657.762	0.0	nontarget	5	1657762	ü	0	44.0	n/a	n/a	8
1660.312	0.0	nontarget	5	1660312	d	0	50.0	n/a	n/a	8
1662.328	0.0	nontarget	5	1662328	u	0	18.0	n/a	n/a	8
1664.411	0.0	nontarget	5	1664411	s	0	22.0	n/a	n/a	8
1666.545	0.0	nontarget	5	1666545	p	0	25.0	n/a	n/a	8
1668.495	0.0	nontarget	5	1668495	y	0	14.0	n/a	n/a	8
1670.461	0.0	nontarget	5	1670461	n	0	15.0	n/a	n/a	8
1672.878	0.0	nontarget	5	1672878	b	0	42.0	n/a	n/a	8
1675.244	0.0	nontarget	5	1675244	i	0	39.0	n/a	n/a	8
1677.411	0.0	nontarget	5	1677411	ß	0	27.0	n/a	n/a	8
1679.627	0.0	nontarget	5	1679627	u	0	30.0	n/a	n/a	8
1682.061	0.0	nontarget	5	1682061	y	0	43.0	n/a	n/a	8
1684.51	0.0	nontarget	5	1684510	q	0	44.0	n/a	n/a	8
1686.477	0.0	target	6	1686477	s	1	15.0	1	0.4111798	8
1686.727	0.5	BAD keypress	2	1686727	n/a	n/a	n/a	n/a	n/a	n/a
1686.977	0.0	keypress	4	1686977	n/a	n/a	n/a	n/a	n/a	n/a
1688.577	0.0	nontarget	5	1688577	m	0	37.0	n/a	n/a	8
1690.527	0.0	nontarget	5	1690527	b	0	14.0	n/a	n/a	8
1692.877	0.0	nontarget	5	1692877	o	0	38.0	n/a	n/a	8
1695.227	0.0	target	6	1695227	f	1	38.0	1	0.4289075	8
1695.527	0.5	BAD keypress	2	1695527	n/a	n/a	n/a	n/a	n/a	n/a
1695.777	0.0	keypress	4	1695777	n/a	n/a	n/a	n/a	n/a	n/a
1697.527	0.0	nontarget	5	1697527	h	0	46.0	n/a	n/a	8
1699.66	0.0	nontarget	5	1699660	v	0	25.0	n/a	n/a	8
1702.043	0.0	target	6	1702043	b	1	40.0	1	0.3640717	8
1702.226	0.5	BAD keypress	2	1702226	n/a	n/a	n/a	n/a	n/a	n/a
1702.476	0.0	keypress	4	1702476	n/a	n/a	n/a	n/a	n/a	n/a
1703.86	0.0	nontarget	5	1703860	r	0	24.0	n/a	n/a	8
1706.06	0.0	nontarget	5	1706060	h	0	29.0	n/a	n/a	8
1708.376	0.0	nontarget	5	1708376	p	0	36.0	n/a	n/a	8
1710.409	0.0	nontarget	5	1710409	x	0	19.0	n/a	n/a	8
1712.359	0.0	nontarget	5	1712359	s	0	14.0	n/a	n/a	8
1714.892	0.0	nontarget	5	1714892	v	0	49.0	n/a	n/a	8
1717.409	0.0	nontarget	5	1717409	q	0	48.0	n/a	n/a	8
1719.359	0.0	nontarget	5	1719359	p	0	14.0	n/a	n/a	8
1721.709	0.0	nontarget	5	1721709	x	0	38.0	n/a	n/a	8
1722.809	32.164999999999964	BAD_break	3	1722809	n/a	n/a	n/a	n/a	n/a	n/a
1755.474	0.0	nontarget	5	1755474	v	0	23.0	n/a	n/a	9
1757.541	0.0	nontarget	5	1757541	f	0	21.0	n/a	n/a	9
1759.54	0.0	nontarget	5	1759540	h	0	17.0	n/a	n/a	9
1762.09	0.0	nontarget	5	1762090	j	0	50.0	n/a	n/a	9
1764.507	0.0	nontarget	5	1764507	z	0	42.0	n/a	n/a	9
1766.507	0.0	nontarget	5	1766507	n	0	17.0	n/a	n/a	9
1768.907	0.0	nontarget	5	1768907	a	0	41.0	n/a	n/a	9
1771.457	0.0	nontarget	5	1771457	m	0	50.0	n/a	n/a	9
1773.64	0.0	nontarget	5	1773640	x	0	28.0	n/a	n/a	9
1775.74	0.0	target	6	1775740	l	1	23.0	1	0.4383929	9
1776.023	0.5	BAD keypress	2	1776023	n/a	n/a	n/a	n/a	n/a	n/a
1776.273	0.0	keypress	4	1776273	n/a	n/a	n/a	n/a	n/a	n/a
1777.556	0.0	nontarget	5	1777556	w	0	17.0	n/a	n/a	9
1780.056	0.0	nontarget	5	1780056	r	0	47.0	n/a	n/a	9
1782.306	0.0	target	6	1782306	v	1	32.0	1	0.399542	9
1782.54	0.5	BAD keypress	2	1782540	n/a	n/a	n/a	n/a	n/a	n/a
1782.79	0.0	keypress	4	1782790	n/a	n/a	n/a	n/a	n/a	n/a
1784.056	0.0	nontarget	5	1784056	j	0	17.0	n/a	n/a	9
1786.573	0.0	nontarget	5	1786573	m	0	48.0	n/a	n/a	9
1789.106	0.0	nontarget	5	1789106	e	0	49.0	n/a	n/a	9
1791.489	0.0	nontarget	5	1791489	o	0	40.0	n/a	n/a	9
1793.639	0.0	nontarget	5	1793639	y	0	26.0	n/a	n/a	9
1796.122	0.0	nontarget	5	1796122	u	0	46.0	n/a	n/a	9
1798.539	0.0	nontarget	5	1798539	c	0	42.0	n/a	n/a	9
1800.872	0.0	nontarget	5	1800872	k	0	37.0	n/a	n/a	9
1803.189	0.0	target	6	1803189	w	1	36.0	1	0.4437683	9
1803.472	0.5	BAD keypress	2	1803472	n/a	n/a	n/a	n/a	n/a	n/a
1803.722	0.0	keypress	4	1803722	n/a	n/a	n/a	n/a	n/a	n/a
1805.155	0.0	nontarget	5	1805155	ö	0	27.0	n/a	n/a	9
1807.505	0.0	nontarget	5	1807505	x	0	38.0	n/a	n/a	9
1809.822	0.0	target	6	1809822	b	1	36.0	1	0.370254	9
1810.022	0.5	BAD keypress	2	1810022	n/a	n/a	n/a	n/a	n/a	n/a
1810.272	0.0	keypress	4	1810272	n/a	n/a	n/a	n/a	n/a	n/a
1811.872	0.0	nontarget	5	1811872	b	0	37.0	n/a	n/a	9
1814.105	0.0	nontarget	5	1814105	q	0	31.0	n/a	n/a	9
1816.438	0.0	nontarget	5	1816438	w	0	37.0	n/a	n/a	9
1818.388	0.0	nontarget	5	1818388	l	0	14.0	n/a	n/a	9
1820.621	0.0	target	6	1820621	k	1	31.0	1	0.3860148	9
1820.855	0.5	BAD keypress	2	1820855	n/a	n/a	n/a	n/a	n/a	n/a
1821.105	0.0	keypress	4	1821105	n/a	n/a	n/a	n/a	n/a	n/a
1822.738	0.0	nontarget	5	1822738	i	0	39.0	n/a	n/a	9
1825.021	0.0	nontarget	5	1825021	h	0	34.0	n/a	n/a	9
1827.288	0.0	nontarget	5	1827288	j	0	33.0	n/a	n/a	9
1829.621	0.0	target	6	1829621	i	1	37.0	1	0.4258294	9
1829.888	0.5	BAD keypress	2	1829888	n/a	n/a	n/a	n/a	n/a	n/a
1830.138	0.0	keypress	4	1830138	n/a	n/a	n/a	n/a	n/a	n/a
1831.404	0.0	nontarget	5	1831404	m	0	17.0	n/a	n/a	9
1833.554	0.0	nontarget	5	1833554	f	0	26.0	n/a	n/a	9
1836.054	0.0	target	6	1836054	ä	1	47.0	1	0.3603522	9
1836.254	0.5	BAD keypress	2	1836254	n/a	n/a	n/a	n/a	n/a	n/a
1836.504	0.0	keypress	4	1836504	n/a	n/a	n/a	n/a	n/a	n/a
1837.82	0.0	nontarget	5	1837820	g	0	20.0	n/a	n/a	9
1840.004	0.0	nontarget	5	1840004	j	0	28.0	n/a	n/a	9
1842.387	0.0	nontarget	5	1842387	l	0	40.0	n/a	n/a	9
1844.77	0.0	target	6	1844770	t	1	40.0	1	0.3794605	9
1844.97	0.5	BAD keypress	2	1844970	n/a	n/a	n/a	n/a	n/a	n/a
1845.22	0.0	keypress	4	1845220	n/a	n/a	n/a	n/a	n/a	n/a
1846.637	0.0	nontarget	5	1846637	z	0	26.0	n/a	n/a	9
1848.687	0.0	target	6	1848687	k	1	20.0	1	0.4307032	9
1848.887	0.5	BAD keypress	2	1848887	n/a	n/a	n/a	n/a	n/a	n/a
1849.137	0.0	keypress	4	1849137	n/a	n/a	n/a	n/a	n/a	n/a
1850.387	0.0	target	6	1850387	u	1	16.0	1	0.3946117	9
1850.637	0.5	BAD keypress	2	1850637	n/a	n/a	n/a	n/a	n/a	n/a
1850.887	0.0	keypress	4	1850887	n/a	n/a	n/a	n/a	n/a	n/a
1852.62	0.0	target	6	1852620	q	1	45.0	1	0.3532614	9
1852.803	0.5	BAD keypress	2	1852803	n/a	n/a	n/a	n/a	n/a	n/a
1853.053	0.0	keypress	4	1853053	n/a	n/a	n/a	n/a	n/a	n/a
1854.67	0.0	nontarget	5	1854670	u	0	38.0	n/a	n/a	9
1856.986	0.0	target	6	1856986	n	1	36.0	1	0.3704645	9
1857.186	0.5	BAD keypress	2	1857186	n/a	n/a	n/a	n/a	n/a	n/a
1857.436	0.0	keypress	4	1857436	n/a	n/a	n/a	n/a	n/a	n/a
1859.069	0.0	nontarget	5	1859069	l	0	39.0	n/a	n/a	9
1861.586	0.0	nontarget	5	1861586	c	0	48.0	n/a	n/a	9
1863.736	0.0	nontarget	5	1863736	ü	0	26.0	n/a	n/a	9
1865.702	0.0	nontarget	5	1865702	s	0	15.0	n/a	n/a	9
1868.236	0.0	nontarget	5	1868236	p	0	49.0	n/a	n/a	9
1870.369	0.0	nontarget	5	1870369	i	0	25.0	n/a	n/a	9
1872.752	0.0	nontarget	5	1872752	ö	0	40.0	n/a	n/a	9
1874.919	0.0	nontarget	5	1874919	w	0	27.0	n/a	n/a	9
1877.169	0.0	nontarget	5	1877169	m	0	32.0	n/a	n/a	9
1879.669	0.0	nontarget	5	1879669	y	0	47.0	n/a	n/a	9
1881.652	0.0	nontarget	5	1881652	e	0	16.0	n/a	n/a	9
1883.935	0.0	nontarget	5	1883935	o	0	34.0	n/a	n/a	9
1885.935	0.0	nontarget	5	1885935	h	0	17.0	n/a	n/a	9
1888.402	0.0	target	6	1888402	a	1	45.0	1	0.4569909	9
1888.768	0.5	BAD keypress	2	1888768	n/a	n/a	n/a	n/a	n/a	n/a
1889.018	0.0	keypress	4	1889018	n/a	n/a	n/a	n/a	n/a	n/a
1890.385	0.0	target	6	1890385	q	1	23.0	1	0.3937009	9
1890.635	0.5	BAD keypress	2	1890635	n/a	n/a	n/a	n/a	n/a	n/a
1890.885	0.0	keypress	4	1890885	n/a	n/a	n/a	n/a	n/a	n/a
1892.651	0.0	nontarget	5	1892651	ö	0	47.0	n/a	n/a	9
1894.768	0.0	nontarget	5	1894768	i	0	24.0	n/a	n/a	9
1897.101	0.0	nontarget	5	1897101	s	0	37.0	n/a	n/a	9
1899.551	0.0	nontarget	5	1899551	t	0	44.0	n/a	n/a	9
1900.651	36.24800000000005	BAD_break	3	1900651	n/a	n/a	n/a	n/a	n/a	n/a
1937.399	0.0	target	6	1937399	i	1	50.0	1	0.4959423	10
1937.799	0.5	BAD keypress	2	1937799	n/a	n/a	n/a	n/a	n/a	n/a
1938.049	0.0	keypress	4	1938049	n/a	n/a	n/a	n/a	n/a	n/a
1939.799	0.0	nontarget	5	1939799	a	0	45.0	n/a	n/a	10
1941.949	0.0	nontarget	5	1941949	j	0	26.0	n/a	n/a	10
1944.416	0.0	nontarget	5	1944416	h	0	45.0	0	0.3590585	10
1944.416	1.0	BAD incorrect	1	1944416	h	0	45.0	0	0.3590585	10
1944.582	0.5	BAD keypress	2	1944582	n/a	n/a	n/a	n/a	n/a	n/a
1944.832	0.0	keypress	4	1944832	n/a	n/a	n/a	n/a	n/a	n/a
1947.149	0.0	nontarget	5	1947149	b	0	49.0	n/a	n/a	10
1949.416	0.0	nontarget	5	1949416	o	0	33.0	n/a	n/a	10
1951.482	0.0	nontarget	5	1951482	k	0	21.0	n/a	n/a	10
1953.565	0.0	nontarget	5	1953565	w	0	22.0	n/a	n/a	10
1955.682	0.0	nontarget	5	1955682	m	0	24.0	n/a	n/a	10
1957.682	0.0	target	6	1957682	t	1	17.0	1	0.4521592	10
1957.965	0.5	BAD keypress	2	1957965	n/a	n/a	n/a	n/a	n/a	n/a
1958.215	0.0	keypress	4	1958215	n/a	n/a	n/a	n/a	n/a	n/a
1959.548	0.0	nontarget	5	1959548	k	0	21.0	n/a	n/a	10
1961.715	0.0	nontarget	5	1961715	n	0	27.0	n/a	n/a	10
1964.265	0.0	nontarget	5	1964265	w	0	50.0	n/a	n/a	10
1966.281	0.0	target	6	1966281	ü	1	18.0	1	0.4439025	10
1966.582	0.5	BAD keypress	2	1966582	n/a	n/a	n/a	n/a	n/a	n/a
1966.832	0.0	keypress	4	1966832	n/a	n/a	n/a	n/a	n/a	n/a
1968.548	0.0	nontarget	5	1968548	ü	0	44.0	n/a	n/a	10
1970.681	0.0	nontarget	5	1970681	i	0	25.0	n/a	n/a	10
1972.681	0.0	nontarget	5	1972681	z	0	17.0	n/a	n/a	10
1974.998	0.0	nontarget	5	1974998	r	0	36.0	n/a	n/a	10
1977.414	0.0	nontarget	5	1977414	ä	0	42.0	n/a	n/a	10
1979.614	0.0	target	6	1979614	ä	1	29.0	1	0.4222338	10
1979.864	0.5	BAD keypress	2	1979864	n/a	n/a	n/a	n/a	n/a	n/a
1980.114	0.0	keypress	4	1980114	n/a	n/a	n/a	n/a	n/a	n/a
1981.631	0.0	nontarget	5	1981631	s	0	32.0	n/a	n/a	10
1984.031	0.0	nontarget	5	1984031	z	0	41.0	n/a	n/a	10
1986.447	0.0	nontarget	5	1986447	ö	0	42.0	n/a	n/a	10
1988.93	0.0	nontarget	5	1988930	g	0	46.0	n/a	n/a	10
1991.447	0.0	nontarget	5	1991447	c	0	48.0	n/a	n/a	10
1993.58	0.0	nontarget	5	1993580	w	0	25.0	n/a	n/a	10
1995.663	0.0	target	6	1995663	b	1	22.0	1	0.4039537	10
1995.897	0.5	BAD keypress	2	1995897	n/a	n/a	n/a	n/a	n/a	n/a
1996.147	0.0	keypress	4	1996147	n/a	n/a	n/a	n/a	n/a	n/a
1997.663	0.0	nontarget	5	1997663	t	0	32.0	n/a	n/a	10
1999.697	0.0	target	6	1999697	j	1	19.0	0	n/a	10
2002.663	0.0	nontarget	5	2002663	u	0	44.0	n/a	n/a	10
2005.046	0.0	target	6	2005046	v	1	40.0	1	0.3483918	10
2005.213	0.5	BAD keypress	2	2005213	n/a	n/a	n/a	n/a	n/a	n/a
2005.463	0.0	keypress	4	2005463	n/a	n/a	n/a	n/a	n/a	n/a
2007.263	0.0	nontarget	5	2007263	s	0	49.0	n/a	n/a	10
2009.263	0.0	target	6	2009263	x	1	17.0	1	0.387601	10
2009.496	0.5	BAD keypress	2	2009496	n/a	n/a	n/a	n/a	n/a	n/a
2009.746	0.0	keypress	4	2009746	n/a	n/a	n/a	n/a	n/a	n/a
2011.346	0.0	nontarget	5	2011346	q	0	37.0	n/a	n/a	10
2013.363	0.0	nontarget	5	2013363	ä	0	18.0	n/a	n/a	10
2015.729	0.0	nontarget	5	2015729	k	0	39.0	n/a	n/a	10
2017.896	0.0	nontarget	5	2017896	v	0	27.0	n/a	n/a	10
2020.129	0.0	target	6	2020129	y	1	31.0	1	0.4007157	10
2020.346	0.5	BAD keypress	2	2020346	n/a	n/a	n/a	n/a	n/a	n/a
2020.596	0.0	keypress	4	2020596	n/a	n/a	n/a	n/a	n/a	n/a
2022.362	0.0	nontarget	5	2022362	e	0	47.0	n/a	n/a	10
2024.846	0.0	nontarget	5	2024846	t	0	46.0	n/a	n/a	10
2027.262	0.0	nontarget	5	2027262	h	0	42.0	n/a	n/a	10
2029.662	0.0	nontarget	5	2029662	z	0	41.0	n/a	n/a	10
2032.095	0.0	nontarget	5	2032095	n	0	43.0	n/a	n/a	10
2034.328	0.0	target	6	2034328	m	1	31.0	1	0.3923699	10
2034.545	0.5	BAD keypress	2	2034545	n/a	n/a	n/a	n/a	n/a	n/a
2034.795	0.0	keypress	4	2034795	n/a	n/a	n/a	n/a	n/a	n/a
2036.112	0.0	nontarget	5	2036112	a	0	20.0	n/a	n/a	10
2038.445	0.0	nontarget	5	2038445	j	0	37.0	n/a	n/a	10
2040.828	0.0	nontarget	5	2040828	ü	0	40.0	n/a	n/a	10
2042.845	0.0	nontarget	5	2042845	g	0	18.0	n/a	n/a	10
2045.095	0.0	nontarget	5	2045095	h	0	32.0	n/a	n/a	10
2047.328	0.0	target	6	2047328	e	1	31.0	1	0.432009	10
2047.611	0.5	BAD keypress	2	2047611	n/a	n/a	n/a	n/a	n/a	n/a
2047.861	0.0	keypress	4	2047861	n/a	n/a	n/a	n/a	n/a	n/a
2049.445	0.0	nontarget	5	2049445	n	0	36.0	n/a	n/a	10
2051.711	0.0	nontarget	5	2051711	x	0	33.0	n/a	n/a	10
2053.761	0.0	nontarget	5	2053761	q	0	20.0	n/a	n/a	10
2055.844	0.0	nontarget	5	2055844	i	0	22.0	n/a	n/a	10
2058.244	0.0	nontarget	5	2058244	a	0	41.0	n/a	n/a	10
2060.511	0.0	nontarget	5	2060511	d	0	33.0	n/a	n/a	10
2062.727	0.0	nontarget	5	2062727	g	0	30.0	n/a	n/a	10
2065.177	0.0	target	6	2065177	w	1	44.0	1	0.4216591	10
2065.427	0.5	BAD keypress	2	2065427	n/a	n/a	n/a	n/a	n/a	n/a
2065.677	0.0	keypress	4	2065677	n/a	n/a	n/a	n/a	n/a	n/a
2067.294	0.0	nontarget	5	2067294	t	0	38.0	n/a	n/a	10
2069.544	0.0	nontarget	5	2069544	w	0	32.0	n/a	n/a	10
2071.743	0.0	target	6	2071743	c	1	29.0	1	0.430806	10
2071.994	0.5	BAD keypress	2	2071994	n/a	n/a	n/a	n/a	n/a	n/a
2072.244	0.0	keypress	4	2072244	n/a	n/a	n/a	n/a	n/a	n/a
2073.743	0.0	nontarget	5	2073743	n	0	31.0	n/a	n/a	10
2076.26	0.0	target	6	2076260	t	1	48.0	1	0.3620185	10
2076.46	0.5	BAD keypress	2	2076460	n/a	n/a	n/a	n/a	n/a	n/a
2076.71	0.0	keypress	4	2076710	n/a	n/a	n/a	n/a	n/a	n/a
2078.36	0.0	nontarget	5	2078360	u	0	40.0	n/a	n/a	10
2080.876	0.0	nontarget	5	2080876	ü	0	48.0	n/a	n/a	10
2083.126	0.0	nontarget	5	2083126	ä	0	32.0	n/a	n/a	10
2084.226	41.63200000000006	BAD_break	3	2084226	n/a	n/a	n/a	n/a	n/a	n/a
2126.358	0.0	nontarget	5	2126358	i	0	23.0	n/a	n/a	11
2128.708	0.0	nontarget	5	2128708	k	0	38.0	n/a	n/a	11
2130.991	0.0	nontarget	5	2130991	ü	0	34.0	n/a	n/a	11
2133.024	0.0	nontarget	5	2133024	d	0	19.0	n/a	n/a	11
2135.357	0.0	nontarget	5	2135357	ß	0	37.0	n/a	n/a	11
2137.474	0.0	nontarget	5	2137474	q	0	24.0	n/a	n/a	11
2139.491	0.0	nontarget	5	2139491	l	0	18.0	n/a	n/a	11
2141.974	0.0	target	6	2141974	g	1	46.0	1	0.3558354	11
2142.207	0.5	BAD keypress	2	2142207	n/a	n/a	n/a	n/a	n/a	n/a
2142.457	0.0	keypress	4	2142457	n/a	n/a	n/a	n/a	n/a	n/a
2143.94	0.0	target	6	2143940	h	1	30.0	1	0.3571249	11
2144.174	0.5	BAD keypress	2	2144174	n/a	n/a	n/a	n/a	n/a	n/a
2144.424	0.0	keypress	4	2144424	n/a	n/a	n/a	n/a	n/a	n/a
2145.907	0.0	nontarget	5	2145907	w	0	30.0	n/a	n/a	11
2148.023	0.0	nontarget	5	2148023	p	0	24.0	n/a	n/a	11
2150.273	0.0	target	6	2150273	m	1	32.0	1	0.3596653	11
2150.49	0.5	BAD keypress	2	2150490	n/a	n/a	n/a	n/a	n/a	n/a
2150.74	0.0	keypress	4	2150740	n/a	n/a	n/a	n/a	n/a	n/a
2152.123	0.0	nontarget	5	2152123	d	0	24.0	n/a	n/a	11
2154.44	0.0	nontarget	5	2154440	o	0	36.0	n/a	n/a	11
2156.623	0.0	target	6	2156623	p	1	28.0	1	0.3614807	11
2156.807	0.5	BAD keypress	2	2156807	n/a	n/a	n/a	n/a	n/a	n/a
2157.057	0.0	keypress	4	2157057	n/a	n/a	n/a	n/a	n/a	n/a
2158.423	0.0	nontarget	5	2158423	ü	0	23.0	n/a	n/a	11
2160.823	0.0	target	6	2160823	f	1	41.0	1	0.3693088	11
2161.023	0.5	BAD keypress	2	2161023	n/a	n/a	n/a	n/a	n/a	n/a
2161.273	0.0	keypress	4	2161273	n/a	n/a	n/a	n/a	n/a	n/a
2163.04	0.0	nontarget	5	2163040	b	0	47.0	n/a	n/a	11
2165.106	0.0	nontarget	5	2165106	j	0	21.0	n/a	n/a	11
2167.256	0.0	target	6	2167256	a	1	26.0	1	0.3679235	11
2167.456	0.5	BAD keypress	2	2167456	n/a	n/a	n/a	n/a	n/a	n/a
2167.706	0.0	keypress	4	2167706	n/a	n/a	n/a	n/a	n/a	n/a
2169.139	0.0	nontarget	5	2169139	t	0	27.0	n/a	n/a	11
2170.606	0.5	BAD keypress	2	2170606	n/a	n/a	n/a	n/a	n/a	n/a
2170.856	0.0	keypress	4	2170856	n/a	n/a	n/a	n/a	n/a	n/a
2171.356	0.0	nontarget	5	2171356	r	0	30.0	n/a	n/a	11
2173.806	0.0	nontarget	5	2173806	d	0	44.0	n/a	n/a	11
2175.806	0.0	nontarget	5	2175806	ö	0	17.0	n/a	n/a	11
2178.205	0.0	nontarget	5	2178205	p	0	41.0	n/a	n/a	11
2180.505	0.0	nontarget	5	2180505	ü	0	35.0	n/a	n/a	11
2182.805	0.0	nontarget	5	2182805	s	0	35.0	n/a	n/a	11
2185.155	0.0	nontarget	5	2185155	z	0	38.0	n/a	n/a	11
2187.288	0.0	nontarget	5	2187288	u	0	25.0	n/a	n/a	11
2189.338	0.0	nontarget	5	2189338	e	0	20.0	n/a	n/a	11
2191.872	0.0	nontarget	5	2191872	d	0	49.0	n/a	n/a	11
2194.138	0.0	nontarget	5	2194138	y	0	33.0	n/a	n/a	11
2196.588	0.0	nontarget	5	2196588	ä	0	44.0	n/a	n/a	11
2198.971	0.0	nontarget	5	2198971	n	0	40.0	n/a	n/a	11
2201.238	0.0	nontarget	5	2201238	a	0	33.0	n/a	n/a	11
2203.671	0.0	nontarget	5	2203671	d	0	43.0	n/a	n/a	11
2205.688	0.0	nontarget	5	2205688	e	0	18.0	n/a	n/a	11
2207.654	0.0	nontarget	5	2207654	h	0	15.0	n/a	n/a	11
2210.004	0.0	nontarget	5	2210004	i	0	38.0	n/a	n/a	11
2212.521	0.0	nontarget	5	2212521	ö	0	48.0	n/a	n/a	11
2214.571	0.0	nontarget	5	2214571	k	0	20.0	n/a	n/a	11
2216.954	0.0	nontarget	5	2216954	b	0	40.0	n/a	n/a	11
2219.004	0.0	nontarget	5	2219004	r	0	20.0	n/a	n/a	11
2221.237	0.0	nontarget	5	2221237	ß	0	31.0	n/a	n/a	11
2223.287	0.0	nontarget	5	2223287	x	0	20.0	n/a	n/a	11
2225.237	0.0	target	6	2225237	h	1	14.0	1	0.4952129	11
2225.587	0.5	BAD keypress	2	2225587	n/a	n/a	n/a	n/a	n/a	n/a
2225.837	0.0	keypress	4	2225837	n/a	n/a	n/a	n/a	n/a	n/a
2227.203	0.0	nontarget	5	2227203	o	0	23.0	n/a	n/a	11
2229.487	0.0	nontarget	5	2229487	r	0	34.0	n/a	n/a	11
2232.036	0.0	nontarget	5	2232036	f	0	50.0	n/a	n/a	11
2234.536	0.0	nontarget	5	2234536	l	0	47.0	n/a	n/a	11
2236.803	0.0	target	6	2236803	t	1	33.0	1	0.4482444	11
2237.136	0.5	BAD keypress	2	2237136	n/a	n/a	n/a	n/a	n/a	n/a
2237.386	0.0	keypress	4	2237386	n/a	n/a	n/a	n/a	n/a	n/a
2239.053	0.0	nontarget	5	2239053	s	0	41.0	n/a	n/a	11
2241.436	0.0	nontarget	5	2241436	d	0	40.0	n/a	n/a	11
2243.769	0.0	nontarget	5	2243769	t	0	37.0	n/a	n/a	11
2245.786	0.0	nontarget	5	2245786	x	0	18.0	n/a	n/a	11
2247.769	0.0	nontarget	5	2247769	j	0	16.0	n/a	n/a	11
2249.719	0.0	nontarget	5	2249719	k	0	14.0	n/a	n/a	11
2251.836	0.0	nontarget	5	2251836	u	0	24.0	n/a	n/a	11
2254.002	0.0	nontarget	5	2254002	h	0	27.0	n/a	n/a	11
2256.235	0.0	nontarget	5	2256235	ß	0	31.0	n/a	n/a	11
2258.569	0.0	nontarget	5	2258569	ü	0	37.0	n/a	n/a	11
2260.635	0.0	nontarget	5	2260635	ä	0	21.0	n/a	n/a	11
2263.035	0.0	target	6	2263035	l	1	41.0	1	0.4063754	11
2263.269	0.5	BAD keypress	2	2263269	n/a	n/a	n/a	n/a	n/a	n/a
2263.519	0.0	keypress	4	2263519	n/a	n/a	n/a	n/a	n/a	n/a
2265.252	0.0	nontarget	5	2265252	l	0	45.0	n/a	n/a	11
2267.735	0.0	nontarget	5	2267735	e	0	46.0	n/a	n/a	11
2270.001	0.0	target	6	2270001	d	1	33.0	1	0.3835936	11
2270.218	0.5	BAD keypress	2	2270218	n/a	n/a	n/a	n/a	n/a	n/a
2270.468	0.0	keypress	4	2270468	n/a	n/a	n/a	n/a	n/a	n/a
2271.568	42.16500000000042	BAD_break	3	2271568	n/a	n/a	n/a	n/a	n/a	n/a
2314.233	0.0	nontarget	5	2314233	v	0	22.0	n/a	n/a	12
2316.183	0.0	target	6	2316183	ü	1	14.0	1	0.3910965	12
2316.4	0.5	BAD keypress	2	2316400	n/a	n/a	n/a	n/a	n/a	n/a
2316.65	0.0	keypress	4	2316650	n/a	n/a	n/a	n/a	n/a	n/a
2317.899	0.0	nontarget	5	2317899	b	0	16.0	n/a	n/a	12
2320.333	0.0	nontarget	5	2320333	o	0	43.0	n/a	n/a	12
2322.816	0.0	target	6	2322816	z	1	46.0	1	0.4455587	12
2323.133	0.5	BAD keypress	2	2323133	n/a	n/a	n/a	n/a	n/a	n/a
2323.383	0.0	keypress	4	2323383	n/a	n/a	n/a	n/a	n/a	n/a
2324.649	0.0	nontarget	5	2324649	e	0	17.0	n/a	n/a	12
2326.616	0.0	nontarget	5	2326616	r	0	15.0	n/a	n/a	12
2329.032	0.0	nontarget	5	2329032	h	0	42.0	n/a	n/a	12
2331.232	0.0	nontarget	5	2331232	f	0	29.0	n/a	n/a	12
2333.615	0.0	nontarget	5	2333615	q	0	40.0	n/a	n/a	12
2336.165	0.0	nontarget	5	2336165	p	0	50.0	n/a	n/a	12
2338.465	0.0	nontarget	5	2338465	ü	0	35.0	n/a	n/a	12
2340.532	0.0	nontarget	5	2340532	m	0	21.0	n/a	n/a	12
2343.082	0.0	target	6	2343082	g	1	50.0	1	0.4823861	12
2343.415	0.5	BAD keypress	2	2343415	n/a	n/a	n/a	n/a	n/a	n/a
2343.665	0.0	keypress	4	2343665	n/a	n/a	n/a	n/a	n/a	n/a
2345.465	0.0	nontarget	5	2345465	s	0	49.0	n/a	n/a	12
2347.465	0.0	nontarget	5	2347465	ö	0	17.0	n/a	n/a	12
2349.981	0.0	target	6	2349981	e	1	48.0	1	0.3822779	12
2350.215	0.5	BAD keypress	2	2350215	n/a	n/a	n/a	n/a	n/a	n/a
2350.465	0.0	keypress	4	2350465	n/a	n/a	n/a	n/a	n/a	n/a
2351.731	0.0	nontarget	5	2351731	i	0	17.0	n/a	n/a	12
2353.864	0.0	nontarget	5	2353864	c	0	25.0	n/a	n/a	12
2356.281	0.0	target	6	2356281	o	1	42.0	1	0.3541827	12
2356.481	0.5	BAD keypress	2	2356481	n/a	n/a	n/a	n/a	n/a	n/a
2356.731	0.0	keypress	4	2356731	n/a	n/a	n/a	n/a	n/a	n/a
2358.431	0.0	nontarget	5	2358431	ß	0	43.0	n/a	n/a	12
2360.714	0.0	nontarget	5	2360714	x	0	34.0	n/a	n/a	12
2362.781	0.0	nontarget	5	2362781	u	0	21.0	n/a	n/a	12
2365.231	0.0	nontarget	5	2365231	j	0	44.0	n/a	n/a	12
2367.247	0.0	nontarget	5	2367247	r	0	18.0	n/a	n/a	12
2369.514	0.0	nontarget	5	2369514	v	0	33.0	n/a	n/a	12
2371.514	0.0	nontarget	5	2371514	h	0	17.0	n/a	n/a	12
2373.88	0.0	nontarget	5	2373880	y	0	39.0	n/a	n/a	12
2376.097	0.0	target	6	2376097	c	1	30.0	1	0.3770216	12
2376.33	0.5	BAD keypress	2	2376330	n/a	n/a	n/a	n/a	n/a	n/a
2376.58	0.0	keypress	4	2376580	n/a	n/a	n/a	n/a	n/a	n/a
2378.363	0.0	nontarget	5	2378363	z	0	48.0	n/a	n/a	12
2380.63	0.0	nontarget	5	2380630	r	0	33.0	n/a	n/a	12
2382.58	0.0	nontarget	5	2382580	v	0	14.0	n/a	n/a	12
2384.596	0.0	nontarget	5	2384596	b	0	18.0	n/a	n/a	12
2386.88	0.0	nontarget	5	2386880	k	0	34.0	n/a	n/a	12
2388.863	0.0	nontarget	5	2388863	i	0	16.0	n/a	n/a	12
2391.063	0.0	nontarget	5	2391063	s	0	29.0	n/a	n/a	12
2393.379	0.0	nontarget	5	2393379	ü	0	36.0	n/a	n/a	12
2395.663	0.0	target	6	2395663	r	1	34.0	1	0.4578946	12
2395.913	0.5	BAD keypress	2	2395913	n/a	n/a	n/a	n/a	n/a	n/a
2396.163	0.0	keypress	4	2396163	n/a	n/a	n/a	n/a	n/a	n/a
2397.663	0.0	nontarget	5	2397663	x	0	31.0	n/a	n/a	12
2399.629	0.0	nontarget	5	2399629	o	0	15.0	n/a	n/a	12
2401.912	0.0	nontarget	5	2401912	q	0	34.0	n/a	n/a	12
2404.462	0.0	nontarget	5	2404462	f	0	50.0	n/a	n/a	12
2406.729	0.0	nontarget	5	2406729	j	0	33.0	n/a	n/a	12
2408.779	0.0	nontarget	5	2408779	b	0	20.0	n/a	n/a	12
2410.979	0.0	target	6	2410979	o	1	29.0	1	0.4208298	12
2411.245	0.5	BAD keypress	2	2411245	n/a	n/a	n/a	n/a	n/a	n/a
2411.495	0.0	keypress	4	2411495	n/a	n/a	n/a	n/a	n/a	n/a
2412.979	0.0	nontarget	5	2412979	h	0	30.0	n/a	n/a	12
2415.312	0.0	nontarget	5	2415312	ü	0	37.0	n/a	n/a	12
2417.845	0.0	target	6	2417845	m	1	49.0	1	0.401963	12
2418.062	0.5	BAD keypress	2	2418062	n/a	n/a	n/a	n/a	n/a	n/a
2418.312	0.0	keypress	4	2418312	n/a	n/a	n/a	n/a	n/a	n/a
2419.695	0.0	nontarget	5	2419695	z	0	24.0	n/a	n/a	12
2421.762	0.0	nontarget	5	2421762	a	0	21.0	n/a	n/a	12
2424.111	0.0	target	6	2424111	ü	1	38.0	1	0.3591461	12
2424.295	0.5	BAD keypress	2	2424295	n/a	n/a	n/a	n/a	n/a	n/a
2424.545	0.0	keypress	4	2424545	n/a	n/a	n/a	n/a	n/a	n/a
2425.911	0.0	nontarget	5	2425911	y	0	23.0	n/a	n/a	12
2428.161	0.0	nontarget	5	2428161	h	0	32.0	n/a	n/a	12
2430.178	0.0	target	6	2430178	w	1	18.0	1	0.4044231	12
2430.411	0.5	BAD keypress	2	2430411	n/a	n/a	n/a	n/a	n/a	n/a
2430.661	0.0	keypress	4	2430661	n/a	n/a	n/a	n/a	n/a	n/a
2432.194	0.0	nontarget	5	2432194	r	0	33.0	n/a	n/a	12
2434.178	0.0	nontarget	5	2434178	k	0	16.0	n/a	n/a	12
2436.444	0.0	target	6	2436444	m	1	33.0	1	0.3615914	12
2436.661	0.5	BAD keypress	2	2436661	n/a	n/a	n/a	n/a	n/a	n/a
2436.911	0.0	keypress	4	2436911	n/a	n/a	n/a	n/a	n/a	n/a
2438.461	0.0	nontarget	5	2438461	z	0	34.0	n/a	n/a	12
2440.877	0.0	nontarget	5	2440877	ü	0	42.0	n/a	n/a	12
2442.844	0.0	nontarget	5	2442844	k	0	15.0	n/a	n/a	12
2444.894	0.0	nontarget	5	2444894	s	0	20.0	n/a	n/a	12
2446.86	0.0	nontarget	5	2446860	n	0	15.0	n/a	n/a	12
2448.994	0.0	nontarget	5	2448994	b	0	25.0	n/a	n/a	12
2451.077	0.0	target	6	2451077	r	1	22.0	1	0.3999487	12
2451.344	0.5	BAD keypress	2	2451344	n/a	n/a	n/a	n/a	n/a	n/a
2451.594	0.0	keypress	4	2451594	n/a	n/a	n/a	n/a	n/a	n/a
2452.81	0.0	nontarget	5	2452810	k	0	14.0	n/a	n/a	12
2454.893	0.0	nontarget	5	2454893	e	0	22.0	n/a	n/a	12
2455.993	72.84700000000021	BAD_break	3	2455993	n/a	n/a	n/a	n/a	n/a	n/a
2529.34	0.0	nontarget	5	2529340	x	0	29.0	n/a	n/a	13
2531.657	0.0	nontarget	5	2531657	ö	0	36.0	n/a	n/a	13
2533.957	0.0	nontarget	5	2533957	f	0	35.0	n/a	n/a	13
2536.306	0.0	nontarget	5	2536306	z	0	38.0	n/a	n/a	13
2538.823	0.0	nontarget	5	2538823	g	0	48.0	n/a	n/a	13
2540.79	0.0	nontarget	5	2540790	r	0	15.0	n/a	n/a	13
2543.073	0.0	nontarget	5	2543073	i	0	34.0	n/a	n/a	13
2545.506	0.0	nontarget	5	2545506	k	0	43.0	n/a	n/a	13
2547.539	0.0	nontarget	5	2547539	ä	0	19.0	n/a	n/a	13
2549.639	0.0	nontarget	5	2549639	m	0	23.0	n/a	n/a	13
2552.022	0.0	nontarget	5	2552022	n	0	40.0	n/a	n/a	13
2554.339	0.0	target	6	2554339	j	1	36.0	1	0.4428345	13
2554.639	0.5	BAD keypress	2	2554639	n/a	n/a	n/a	n/a	n/a	n/a
2554.889	0.0	keypress	4	2554889	n/a	n/a	n/a	n/a	n/a	n/a
2556.506	0.0	nontarget	5	2556506	g	0	38.0	n/a	n/a	13
2558.656	0.0	nontarget	5	2558656	p	0	26.0	n/a	n/a	13
2561.122	0.0	nontarget	5	2561122	c	0	45.0	n/a	n/a	13
2563.439	0.0	nontarget	5	2563439	ä	0	36.0	n/a	n/a	13
2565.605	0.0	nontarget	5	2565605	s	0	27.0	n/a	n/a	13
2568.022	0.0	target	6	2568022	l	1	42.0	1	0.3591419	13
2568.255	0.5	BAD keypress	2	2568255	n/a	n/a	n/a	n/a	n/a	n/a
2568.505	0.0	keypress	4	2568505	n/a	n/a	n/a	n/a	n/a	n/a
2570.205	0.0	nontarget	5	2570205	f	0	43.0	n/a	n/a	13
2572.388	0.0	nontarget	5	2572388	m	0	28.0	n/a	n/a	13
2574.805	0.0	nontarget	5	2574805	x	0	42.0	n/a	n/a	13
2577.321	0.0	nontarget	5	2577321	g	0	48.0	n/a	n/a	13
2579.288	0.0	nontarget	5	2579288	y	0	15.0	n/a	n/a	13
2581.704	0.0	nontarget	5	2581704	r	0	42.0	n/a	n/a	13
2584.104	0.0	nontarget	5	2584104	h	0	41.0	n/a	n/a	13
2586.121	0.0	target	6	2586121	x	1	18.0	1	0.482826	13
2586.471	0.5	BAD keypress	2	2586471	n/a	n/a	n/a	n/a	n/a	n/a
2586.721	0.0	keypress	4	2586721	n/a	n/a	n/a	n/a	n/a	n/a
2588.071	0.0	nontarget	5	2588071	v	0	22.0	n/a	n/a	13
2590.404	0.0	nontarget	5	2590404	z	0	37.0	n/a	n/a	13
2592.571	0.0	target	6	2592571	i	1	27.0	1	0.4645575	13
2592.854	0.5	BAD keypress	2	2592854	n/a	n/a	n/a	n/a	n/a	n/a
2593.104	0.0	keypress	4	2593104	n/a	n/a	n/a	n/a	n/a	n/a
2594.321	0.0	nontarget	5	2594321	w	0	14.0	n/a	n/a	13
2596.837	0.0	nontarget	5	2596837	s	0	48.0	n/a	n/a	13
2599.004	0.0	nontarget	5	2599004	ß	0	27.0	n/a	n/a	13
2601.42	0.0	nontarget	5	2601420	ä	0	42.0	n/a	n/a	13
2603.92	0.0	target	6	2603920	m	1	47.0	1	0.4104084	13
2604.17	0.5	BAD keypress	2	2604170	n/a	n/a	n/a	n/a	n/a	n/a
2604.42	0.0	keypress	4	2604420	n/a	n/a	n/a	n/a	n/a	n/a
2606.053	0.0	target	6	2606053	c	1	39.0	1	0.3889604	13
2606.27	0.5	BAD keypress	2	2606270	n/a	n/a	n/a	n/a	n/a	n/a
2606.52	0.0	keypress	4	2606520	n/a	n/a	n/a	n/a	n/a	n/a
2608.287	0.0	nontarget	5	2608287	z	0	47.0	n/a	n/a	13
2610.787	0.0	nontarget	5	2610787	w	0	47.0	n/a	n/a	13
2613.17	0.0	nontarget	5	2613170	ß	0	40.0	0	0.3441413	13
2613.17	1.0	BAD incorrect	1	2613170	ß	0	40.0	0	0.3441413	13
2613.32	0.5	BAD keypress	2	2613320	n/a	n/a	n/a	n/a	n/a	n/a
2613.57	0.0	keypress	4	2613570	n/a	n/a	n/a	n/a	n/a	n/a
2615.636	0.0	nontarget	5	2615636	ö	0	34.0	n/a	n/a	13
2618.003	0.0	nontarget	5	2618003	z	0	39.0	n/a	n/a	13
2620.253	0.0	nontarget	5	2620253	m	0	32.0	n/a	n/a	13
2622.303	0.0	nontarget	5	2622303	a	0	20.0	n/a	n/a	13
2624.669	0.0	nontarget	5	2624669	i	0	39.0	n/a	n/a	13
2626.653	0.0	target	6	2626653	d	1	16.0	1	0.3965352	13
2626.886	0.5	BAD keypress	2	2626886	n/a	n/a	n/a	n/a	n/a	n/a
2627.136	0.0	keypress	4	2627136	n/a	n/a	n/a	n/a	n/a	n/a
2628.502	0.0	nontarget	5	2628502	e	0	23.0	n/a	n/a	13
2630.819	0.0	nontarget	5	2630819	q	0	36.0	n/a	n/a	13
2633.102	0.0	target	6	2633102	i	1	34.0	1	0.4743337	13
2633.419	0.5	BAD keypress	2	2633419	n/a	n/a	n/a	n/a	n/a	n/a
2633.669	0.0	keypress	4	2633669	n/a	n/a	n/a	n/a	n/a	n/a
2635.352	0.0	nontarget	5	2635352	n	0	42.0	n/a	n/a	13
2637.302	0.0	target	6	2637302	f	1	14.0	1	0.4822937	13
2637.652	0.5	BAD keypress	2	2637652	n/a	n/a	n/a	n/a	n/a	n/a
2637.902	0.0	keypress	4	2637902	n/a	n/a	n/a	n/a	n/a	n/a
2639.469	0.0	nontarget	5	2639469	y	0	35.0	n/a	n/a	13
2641.735	0.0	nontarget	5	2641735	k	0	33.0	n/a	n/a	13
2644.118	0.0	nontarget	5	2644118	g	0	40.0	n/a	n/a	13
2646.268	0.0	nontarget	5	2646268	ä	0	26.0	n/a	n/a	13
2648.452	0.0	target	6	2648452	t	1	28.0	1	0.4359592	13
2648.718	0.5	BAD keypress	2	2648718	n/a	n/a	n/a	n/a	n/a	n/a
2648.968	0.0	keypress	4	2648968	n/a	n/a	n/a	n/a	n/a	n/a
2650.468	0.0	nontarget	5	2650468	q	0	31.0	n/a	n/a	13
2652.951	0.0	nontarget	5	2652951	t	0	46.0	n/a	n/a	13
2655.035	0.0	target	6	2655035	c	1	22.0	1	0.3964969	13
2655.285	0.5	BAD keypress	2	2655285	n/a	n/a	n/a	n/a	n/a	n/a
2655.535	0.0	keypress	4	2655535	n/a	n/a	n/a	n/a	n/a	n/a
2656.985	0.0	nontarget	5	2656985	i	0	28.0	n/a	n/a	13
2659.234	0.0	nontarget	5	2659234	n	0	32.0	n/a	n/a	13
2661.768	0.0	nontarget	5	2661768	m	0	49.0	n/a	n/a	13
2664.168	0.0	nontarget	5	2664168	d	0	41.0	n/a	n/a	13
2666.584	0.0	nontarget	5	2666584	ü	0	42.0	n/a	n/a	13
2668.534	0.0	nontarget	5	2668534	v	0	14.0	n/a	n/a	13
2670.934	0.0	nontarget	5	2670934	f	0	41.0	n/a	n/a	13
2673.101	0.0	target	6	2673101	k	1	27.0	1	0.4093975	13
2673.384	0.5	BAD keypress	2	2673384	n/a	n/a	n/a	n/a	n/a	n/a
2673.634	0.0	keypress	4	2673634	n/a	n/a	n/a	n/a	n/a	n/a
2675.15	0.0	target	6	2675150	b	1	32.0	1	0.3913986	13
2675.384	0.5	BAD keypress	2	2675384	n/a	n/a	n/a	n/a	n/a	n/a
2675.634	0.0	keypress	4	2675634	n/a	n/a	n/a	n/a	n/a	n/a
2676.734	45.164000000000215	BAD_break	3	2676734	n/a	n/a	n/a	n/a	n/a	n/a
2722.398	0.0	target	6	2722398	l	1	43.0	1	0.4042609	14
2722.648	0.5	BAD keypress	2	2722648	n/a	n/a	n/a	n/a	n/a	n/a
2722.898	0.0	keypress	4	2722898	n/a	n/a	n/a	n/a	n/a	n/a
2724.315	0.0	nontarget	5	2724315	m	0	25.0	n/a	n/a	14
2726.715	0.0	nontarget	5	2726715	v	0	41.0	n/a	n/a	14
2729.198	0.0	nontarget	5	2729198	ü	0	46.0	n/a	n/a	14
2731.381	0.0	nontarget	5	2731381	o	0	28.0	n/a	n/a	14
2733.431	0.0	target	6	2733431	ü	1	20.0	1	0.3786189	14
2733.698	0.5	BAD keypress	2	2733698	n/a	n/a	n/a	n/a	n/a	n/a
2733.948	0.0	keypress	4	2733948	n/a	n/a	n/a	n/a	n/a	n/a
2735.164	0.0	nontarget	5	2735164	l	0	14.0	n/a	n/a	14
2737.164	0.0	nontarget	5	2737164	q	0	17.0	n/a	n/a	14
2739.548	0.0	nontarget	5	2739548	ö	0	40.0	n/a	n/a	14
2741.764	0.0	target	6	2741764	b	1	30.0	1	0.3810858	14
2742.014	0.5	BAD keypress	2	2742014	n/a	n/a	n/a	n/a	n/a	n/a
2742.264	0.0	keypress	4	2742264	n/a	n/a	n/a	n/a	n/a	n/a
2743.914	0.0	target	6	2743914	w	1	40.0	1	0.3909004	14
2744.181	0.5	BAD keypress	2	2744181	n/a	n/a	n/a	n/a	n/a	n/a
2744.431	0.0	keypress	4	2744431	n/a	n/a	n/a	n/a	n/a	n/a
2745.881	0.0	nontarget	5	2745881	r	0	28.0	n/a	n/a	14
2748.014	0.0	nontarget	5	2748014	l	0	25.0	n/a	n/a	14
2750.497	0.0	target	6	2750497	l	1	46.0	1	0.3996082	14
2750.781	0.5	BAD keypress	2	2750781	n/a	n/a	n/a	n/a	n/a	n/a
2751.031	0.0	keypress	4	2751031	n/a	n/a	n/a	n/a	n/a	n/a
2752.68	0.0	target	6	2752680	p	1	40.0	1	0.360213	14
2752.93	0.5	BAD keypress	2	2752930	n/a	n/a	n/a	n/a	n/a	n/a
2753.18	0.0	keypress	4	2753180	n/a	n/a	n/a	n/a	n/a	n/a
2754.597	0.0	nontarget	5	2754597	j	0	26.0	n/a	n/a	14
2756.647	0.0	nontarget	5	2756647	ö	0	20.0	n/a	n/a	14
2758.713	0.0	nontarget	5	2758713	d	0	21.0	n/a	n/a	14
2761.163	0.0	nontarget	5	2761163	w	0	44.0	n/a	n/a	14
2763.113	0.0	nontarget	5	2763113	c	0	14.0	n/a	n/a	14
2765.563	0.0	nontarget	5	2765563	a	0	44.0	n/a	n/a	14
2768.08	0.0	target	6	2768080	b	1	48.0	1	0.3838361	14
2768.363	0.5	BAD keypress	2	2768363	n/a	n/a	n/a	n/a	n/a	n/a
2768.613	0.0	keypress	4	2768613	n/a	n/a	n/a	n/a	n/a	n/a
2769.896	0.0	nontarget	5	2769896	q	0	18.0	n/a	n/a	14
2772.279	0.0	target	6	2772279	f	1	40.0	1	0.4077809	14
2772.546	0.5	BAD keypress	2	2772546	n/a	n/a	n/a	n/a	n/a	n/a
2772.796	0.0	keypress	4	2772796	n/a	n/a	n/a	n/a	n/a	n/a
2774.146	0.0	nontarget	5	2774146	u	0	22.0	n/a	n/a	14
2776.679	0.0	target	6	2776679	s	1	49.0	1	0.3756809	14
2776.963	0.5	BAD keypress	2	2776963	n/a	n/a	n/a	n/a	n/a	n/a
2777.213	0.0	keypress	4	2777213	n/a	n/a	n/a	n/a	n/a	n/a
2778.946	0.0	nontarget	5	2778946	q	0	45.0	n/a	n/a	14
2781.396	0.0	nontarget	5	2781396	p	0	44.0	n/a	n/a	14
2783.862	0.0	nontarget	5	2783862	z	0	45.0	n/a	n/a	14
2786.062	0.0	nontarget	5	2786062	f	0	29.0	n/a	n/a	14
2788.212	0.0	nontarget	5	2788212	j	0	26.0	n/a	n/a	14
2790.529	0.0	target	6	2790529	l	1	36.0	1	0.3973333	14
2790.812	0.5	BAD keypress	2	2790812	n/a	n/a	n/a	n/a	n/a	n/a
2791.062	0.0	keypress	4	2791062	n/a	n/a	n/a	n/a	n/a	n/a
2792.545	0.0	nontarget	5	2792545	v	0	30.0	n/a	n/a	14
2794.845	0.0	nontarget	5	2794845	o	0	35.0	n/a	n/a	14
2797.345	0.0	nontarget	5	2797345	y	0	47.0	n/a	n/a	14
2799.545	0.0	target	6	2799545	d	1	29.0	1	0.4043671	14
2799.812	0.5	BAD keypress	2	2799812	n/a	n/a	n/a	n/a	n/a	n/a
2800.062	0.0	keypress	4	2800062	n/a	n/a	n/a	n/a	n/a	n/a
2801.462	0.0	nontarget	5	2801462	t	0	25.0	n/a	n/a	14
2803.628	0.0	nontarget	5	2803628	o	0	27.0	n/a	n/a	14
2805.595	0.0	nontarget	5	2805595	u	0	15.0	n/a	n/a	14
2807.645	0.0	nontarget	5	2807645	w	0	20.0	n/a	n/a	14
2809.778	0.0	nontarget	5	2809778	f	0	25.0	n/a	n/a	14
2811.744	0.0	target	6	2811744	c	1	15.0	1	0.4121558	14
2812.028	0.5	BAD keypress	2	2812028	n/a	n/a	n/a	n/a	n/a	n/a
2812.278	0.0	keypress	4	2812278	n/a	n/a	n/a	n/a	n/a	n/a
2813.794	0.0	nontarget	5	2813794	s	0	32.0	n/a	n/a	14
2815.928	0.0	nontarget	5	2815928	w	0	25.0	n/a	n/a	14
2817.878	0.0	nontarget	5	2817878	j	0	14.0	n/a	n/a	14
2820.027	0.0	target	6	2820027	y	1	26.0	1	0.4007187	14
2820.311	0.5	BAD keypress	2	2820311	n/a	n/a	n/a	n/a	n/a	n/a
2820.561	0.0	keypress	4	2820561	n/a	n/a	n/a	n/a	n/a	n/a
2821.977	0.0	nontarget	5	2821977	v	0	26.0	n/a	n/a	14
2824.127	0.0	nontarget	5	2824127	b	0	26.0	n/a	n/a	14
2826.127	0.0	nontarget	5	2826127	t	0	17.0	n/a	n/a	14
2828.31	0.0	nontarget	5	2828310	x	0	28.0	n/a	n/a	14
2830.277	0.0	nontarget	5	2830277	h	0	15.0	n/a	n/a	14
2832.544	0.0	nontarget	5	2832544	u	0	33.0	n/a	n/a	14
2834.51	0.0	nontarget	5	2834510	g	0	15.0	n/a	n/a	14
2836.46	0.0	nontarget	5	2836460	y	0	14.0	n/a	n/a	14
2838.477	0.0	nontarget	5	2838477	m	0	18.0	n/a	n/a	14
2840.943	0.0	nontarget	5	2840943	n	0	45.0	n/a	n/a	14
2842.943	0.0	nontarget	5	2842943	ß	0	17.0	n/a	n/a	14
2845.193	0.0	nontarget	5	2845193	l	0	32.0	n/a	n/a	14
2847.276	0.0	nontarget	5	2847276	y	0	22.0	n/a	n/a	14
2849.343	0.0	nontarget	5	2849343	w	0	21.0	n/a	n/a	14
2850.443	22.23600000000033	BAD_break	3	2850443	n/a	n/a	n/a	n/a	n/a	n/a
