onset	duration	trial_type	value	sample	stimulus	target	blank_jitter_frames	accuracy	response_time	block
0.0	176.839	BAD_break	3	0	n/a	n/a	n/a	n/a	n/a	n/a
177.339	0.0	nontarget	5	177339	ä	0	20.0	n/a	n/a	1
179.805	0.0	target	6	179805	v	1	45.0	1	0.454658	1
180.106	0.5	BAD keypress	2	180106	n/a	n/a	n/a	n/a	n/a	n/a
180.356	0.0	keypress	4	180356	n/a	n/a	n/a	n/a	n/a	n/a
182.155	0.0	target	6	182155	t	1	49.0	1	0.4406011	1
182.505	0.5	BAD keypress	2	182505	n/a	n/a	n/a	n/a	n/a	n/a
182.755	0.0	keypress	4	182755	n/a	n/a	n/a	n/a	n/a	n/a
184.455	0.0	nontarget	5	184455	s	0	43.0	n/a	n/a	1
186.922	0.0	nontarget	5	186922	i	0	45.0	n/a	n/a	1
189.305	0.0	nontarget	5	189305	u	0	40.0	n/a	n/a	1
191.705	0.0	nontarget	5	191705	e	0	41.0	n/a	n/a	1
193.855	0.0	nontarget	5	193855	x	0	26.0	n/a	n/a	1
196.021	0.0	nontarget	5	196021	w	0	27.0	n/a	n/a	1
198.471	0.0	nontarget	5	198471	n	0	44.0	n/a	n/a	1
200.421	0.0	target	6	200421	j	1	14.0	1	0.445549	1
200.755	0.5	BAD keypress	2	200755	n/a	n/a	n/a	n/a	n/a	n/a
201.005	0.0	keypress	4	201005	n/a	n/a	n/a	n/a	n/a	n/a
202.621	0.0	nontarget	5	202621	y	0	37.0	n/a	n/a	1
204.871	0.0	nontarget	5	204871	d	0	32.0	n/a	n/a	1
207.221	0.0	target	6	207221	ü	1	38.0	1	0.3814866	1
207.504	0.5	BAD keypress	2	207504	n/a	n/a	n/a	n/a	n/a	n/a
207.754	0.0	keypress	4	207754	n/a	n/a	n/a	n/a	n/a	n/a
209.354	0.0	target	6	209354	c	1	36.0	1	0.4400009	1
209.704	0.5	BAD keypress	2	209704	n/a	n/a	n/a	n/a	n/a	n/a
209.954	0.0	keypress	4	209954	n/a	n/a	n/a	n/a	n/a	n/a
211.337	0.0	nontarget	5	211337	b	0	24.0	n/a	n/a	1
213.487	0.0	nontarget	5	213487	x	0	26.0	n/a	n/a	1
215.654	0.0	nontarget	5	215654	s	0	27.0	n/a	n/a	1
217.654	0.0	nontarget	5	217654	h	0	17.0	n/a	n/a	1
219.87	0.0	nontarget	5	219870	o	0	30.0	n/a	n/a	1
221.87	0.0	nontarget	5	221870	g	0	17.0	n/a	n/a	1
223.853	0.0	nontarget	5	223853	j	0	16.0	n/a	n/a	1
226.303	0.0	nontarget	5	226303	ü	0	44.0	n/a	n/a	1
228.703	0.0	nontarget	5	228703	e	0	41.0	n/a	n/a	1
231.153	0.0	nontarget	5	231153	g	0	44.0	n/a	n/a	1
233.336	0.0	nontarget	5	233336	c	0	28.0	n/a	n/a	1
235.536	0.0	nontarget	5	235536	n	0	29.0	n/a	n/a	1
237.886	0.0	nontarget	5	237886	b	0	38.0	n/a	n/a	1
239.869	0.0	nontarget	5	239869	w	0	16.0	n/a	n/a	1
241.919	0.0	nontarget	5	241919	e	0	20.0	n/a	n/a	1
244.186	0.0	nontarget	5	244186	x	0	33.0	n/a	n/a	1
246.352	0.0	nontarget	5	246352	ä	0	27.0	n/a	n/a	1
248.652	0.0	target	6	248652	x	1	35.0	1	0.3871551	1
248.969	0.5	BAD keypress	2	248969	n/a	n/a	n/a	n/a	n/a	n/a
249.219	0.0	keypress	4	249219	n/a	n/a	n/a	n/a	n/a	n/a
250.436	0.0	nontarget	5	250436	g	0	14.0	n/a	n/a	1
252.752	0.0	nontarget	5	252752	f	0	36.0	n/a	n/a	1
254.752	0.0	nontarget	5	254752	k	0	17.0	n/a	n/a	1
257.152	0.0	nontarget	5	257152	ö	0	41.0	n/a	n/a	1
259.552	0.0	nontarget	5	259552	j	0	41.0	n/a	n/a	1
261.518	0.0	nontarget	5	261518	y	0	15.0	n/a	n/a	1
263.885	0.0	nontarget	5	263885	k	0	39.0	n/a	n/a	1
266.318	0.0	nontarget	5	266318	t	0	43.0	n/a	n/a	1
268.535	0.0	nontarget	5	268535	p	0	30.0	n/a	n/a	1
270.485	0.0	nontarget	5	270485	n	0	14.0	n/a	n/a	1
272.451	0.0	nontarget	5	272451	ü	0	15.0	n/a	n/a	1
274.651	0.0	nontarget	5	274651	m	0	29.0	n/a	n/a	1
276.618	0.0	target	6	276618	o	1	15.0	1	0.435798	1
276.968	0.5	BAD keypress	2	276968	n/a	n/a	n/a	n/a	n/a	n/a
277.218	0.0	keypress	4	277218	n/a	n/a	n/a	n/a	n/a	n/a
278.668	0.0	nontarget	5	278668	o	0	28.0	n/a	n/a	1
281.101	0.0	target	6	281101	c	1	43.0	1	0.464444	1
281.434	0.5	BAD keypress	2	281434	n/a	n/a	n/a	n/a	n/a	n/a
281.684	0.0	keypress	4	281684	n/a	n/a	n/a	n/a	n/a	n/a
283.217	0.0	nontarget	5	283217	f	0	33.0	n/a	n/a	1
285.401	0.0	nontarget	5	285401	a	0	28.0	n/a	n/a	1
287.651	0.0	nontarget	5	287651	c	0	32.0	n/a	n/a	1
289.651	0.0	nontarget	5	289651	k	0	17.0	n/a	n/a	1
291.8	0.0	nontarget	5	291800	d	0	26.0	n/a	n/a	1
293.967	0.0	target	6	293967	ü	1	27.0	1	0.3974549	1
294.267	0.5	BAD keypress	2	294267	n/a	n/a	n/a	n/a	n/a	n/a
294.517	0.0	keypress	4	294517	n/a	n/a	n/a	n/a	n/a	n/a
295.95	0.0	nontarget	5	295950	ö	0	27.0	n/a	n/a	1
298.283	0.0	nontarget	5	298283	l	0	37.0	n/a	n/a	1
300.683	0.0	target	6	300683	l	1	41.0	1	0.3846105	1
300.933	0.5	BAD keypress	2	300933	n/a	n/a	n/a	n/a	n/a	n/a
301.183	0.0	keypress	4	301183	n/a	n/a	n/a	n/a	n/a	n/a
302.933	0.0	nontarget	5	302933	u	0	46.0	n/a	n/a	1
305.283	0.0	nontarget	5	305283	b	0	38.0	n/a	n/a	1
307.383	0.0	target	6	307383	o	1	23.0	1	0.3724956	1
307.633	0.5	BAD keypress	2	307633	n/a	n/a	n/a	n/a	n/a	n/a
307.883	0.0	keypress	4	307883	n/a	n/a	n/a	n/a	n/a	n/a
309.216	0.0	nontarget	5	309216	a	0	21.0	n/a	n/a	1
311.483	0.0	nontarget	5	311483	z	0	33.0	n/a	n/a	1
314.016	0.0	nontarget	5	314016	d	0	49.0	n/a	n/a	1
316.016	0.0	target	6	316016	q	1	17.0	1	0.3789666	1
316.283	0.5	BAD keypress	2	316283	n/a	n/a	n/a	n/a	n/a	n/a
316.533	0.0	keypress	4	316533	n/a	n/a	n/a	n/a	n/a	n/a
318.049	0.0	nontarget	5	318049	ö	0	32.0	n/a	n/a	1
320.599	0.0	nontarget	5	320599	j	0	50.0	n/a	n/a	1
321.699	14.932999999999993	BAD_break	3	321699	n/a	n/a	n/a	n/a	n/a	n/a
336.882	0.5	BAD keypress	2	336882	n/a	n/a	n/a	n/a	n/a	n/a
337.132	0.0	keypress	4	337132	n/a	n/a	n/a	n/a	n/a	n/a
338.798	0.0	nontarget	5	338798	f	0	42.0	n/a	n/a	2
340.948	0.0	target	6	340948	m	1	26.0	1	0.3731469	2
341.182	0.5	BAD keypress	2	341182	n/a	n/a	n/a	n/a	n/a	n/a
341.432	0.0	keypress	4	341432	n/a	n/a	n/a	n/a	n/a	n/a
342.865	0.0	nontarget	5	342865	p	0	27.0	n/a	n/a	2
344.848	0.0	nontarget	5	344848	z	0	16.0	n/a	n/a	2
347.315	0.0	nontarget	5	347315	e	0	45.0	n/a	n/a	2
349.515	0.0	target	6	349515	h	1	29.0	1	0.3662289	2
349.765	0.5	BAD keypress	2	349765	n/a	n/a	n/a	n/a	n/a	n/a
350.015	0.0	keypress	4	350015	n/a	n/a	n/a	n/a	n/a	n/a
351.648	0.0	nontarget	5	351648	g	0	39.0	n/a	n/a	2
354.164	0.0	nontarget	5	354164	ö	0	48.0	n/a	n/a	2
356.181	0.0	nontarget	5	356181	ü	0	18.0	n/a	n/a	2
358.697	0.0	target	6	358697	z	1	48.0	1	0.3827438	2
358.948	0.5	BAD keypress	2	358948	n/a	n/a	n/a	n/a	n/a	n/a
359.198	0.0	keypress	4	359198	n/a	n/a	n/a	n/a	n/a	n/a
360.447	0.0	nontarget	5	360447	q	0	15.0	n/a	n/a	2
362.947	0.0	nontarget	5	362947	v	0	47.0	n/a	n/a	2
365.38	0.0	nontarget	5	365380	l	0	43.0	n/a	n/a	2
367.73	0.0	nontarget	5	367730	y	0	38.0	n/a	n/a	2
369.914	0.0	nontarget	5	369914	a	0	28.0	n/a	n/a	2
372.43	0.0	nontarget	5	372430	w	0	48.0	n/a	n/a	2
374.947	0.0	nontarget	5	374947	x	0	48.0	n/a	n/a	2
376.947	0.0	nontarget	5	376947	j	0	17.0	n/a	n/a	2
379.13	0.0	target	6	379130	x	1	28.0	1	0.3809582	2
379.38	0.5	BAD keypress	2	379380	n/a	n/a	n/a	n/a	n/a	n/a
379.63	0.0	keypress	4	379630	n/a	n/a	n/a	n/a	n/a	n/a
381.313	0.0	nontarget	5	381313	f	0	42.0	n/a	n/a	2
383.646	0.0	nontarget	5	383646	h	0	37.0	n/a	n/a	2
386.146	0.0	nontarget	5	386146	r	0	47.0	n/a	n/a	2
388.213	0.0	nontarget	5	388213	e	0	18.0	n/a	n/a	2
390.763	0.0	nontarget	5	390763	g	0	50.0	n/a	n/a	2
393.029	0.0	nontarget	5	393029	q	0	33.0	n/a	n/a	2
395.446	0.0	nontarget	5	395446	t	0	42.0	n/a	n/a	2
397.712	0.0	nontarget	5	397712	ü	0	33.0	n/a	n/a	2
399.929	0.0	nontarget	5	399929	ß	0	30.0	n/a	n/a	2
402.012	0.0	nontarget	5	402012	g	0	22.0	n/a	n/a	2
404.462	0.0	nontarget	5	404462	x	0	44.0	n/a	n/a	2
406.929	0.0	nontarget	5	406929	r	0	45.0	n/a	n/a	2
408.879	0.0	nontarget	5	408879	ß	0	14.0	n/a	n/a	2
410.878	0.0	target	6	410878	a	1	17.0	1	0.4221313	2
411.179	0.5	BAD keypress	2	411179	n/a	n/a	n/a	n/a	n/a	n/a
411.429	0.0	keypress	4	411429	n/a	n/a	n/a	n/a	n/a	n/a
412.978	0.0	nontarget	5	412978	j	0	34.0	n/a	n/a	2
415.228	0.0	nontarget	5	415228	b	0	32.0	n/a	n/a	2
417.378	0.0	nontarget	5	417378	z	0	26.0	n/a	n/a	2
419.845	0.0	nontarget	5	419845	ä	0	45.0	n/a	n/a	2
422.278	0.0	nontarget	5	422278	f	0	43.0	n/a	n/a	2
424.278	0.0	target	6	424278	a	1	17.0	1	0.5098914	2
424.645	0.5	BAD keypress	2	424645	n/a	n/a	n/a	n/a	n/a	n/a
424.895	0.0	keypress	4	424895	n/a	n/a	n/a	n/a	n/a	n/a
426.428	0.0	target	6	426428	e	1	32.0	1	0.4078185	2
426.711	0.5	BAD keypress	2	426711	n/a	n/a	n/a	n/a	n/a	n/a
426.961	0.0	keypress	4	426961	n/a	n/a	n/a	n/a	n/a	n/a
428.778	0.0	nontarget	5	428778	m	0	50.0	n/a	n/a	2
430.894	0.0	nontarget	5	430894	s	0	24.0	n/a	n/a	2
433.211	0.0	nontarget	5	433211	y	0	36.0	n/a	n/a	2
435.377	0.0	nontarget	5	435377	a	0	27.0	n/a	n/a	2
437.561	0.0	target	6	437561	s	1	28.0	1	0.3622574	2
437.777	0.5	BAD keypress	2	437777	n/a	n/a	n/a	n/a	n/a	n/a
438.027	0.0	keypress	4	438027	n/a	n/a	n/a	n/a	n/a	n/a
439.761	0.0	nontarget	5	439761	w	0	45.0	n/a	n/a	2
441.894	0.0	nontarget	5	441894	m	0	25.0	n/a	n/a	2
444.244	0.0	nontarget	5	444244	s	0	38.0	n/a	n/a	2
446.627	0.0	nontarget	5	446627	j	0	40.0	n/a	n/a	2
448.677	0.0	nontarget	5	448677	f	0	20.0	n/a	n/a	2
450.777	0.0	nontarget	5	450777	k	0	23.0	n/a	n/a	2
452.943	0.0	nontarget	5	452943	s	0	27.0	n/a	n/a	2
454.993	0.0	nontarget	5	454993	a	0	20.0	n/a	n/a	2
457.276	0.0	nontarget	5	457276	y	0	34.0	n/a	n/a	2
459.776	0.0	nontarget	5	459776	t	0	47.0	n/a	n/a	2
461.96	0.0	target	6	461960	h	1	28.0	1	0.3937348	2
462.243	0.5	BAD keypress	2	462243	n/a	n/a	n/a	n/a	n/a	n/a
462.493	0.0	keypress	4	462493	n/a	n/a	n/a	n/a	n/a	n/a
464.059	0.0	nontarget	5	464059	d	0	35.0	n/a	n/a	2
466.509	0.0	nontarget	5	466509	k	0	44.0	n/a	n/a	2
468.793	0.0	nontarget	5	468793	g	0	34.0	n/a	n/a	2
471.009	0.0	nontarget	5	471009	t	0	30.0	n/a	n/a	2
473.176	0.0	nontarget	5	473176	v	0	27.0	n/a	n/a	2
475.526	0.0	nontarget	5	475526	x	0	38.0	n/a	n/a	2
477.526	0.0	target	6	477526	c	1	17.0	1	0.4267108	2
477.809	0.5	BAD keypress	2	477809	n/a	n/a	n/a	n/a	n/a	n/a
478.059	0.0	keypress	4	478059	n/a	n/a	n/a	n/a	n/a	n/a
479.392	0.0	nontarget	5	479392	a	0	21.0	n/a	n/a	2
481.825	0.0	nontarget	5	481825	e	0	43.0	n/a	n/a	2
483.875	0.0	nontarget	5	483875	ß	0	20.0	n/a	n/a	2
484.975	11.099999999999966	BAD_break	3	484975	n/a	n/a	n/a	n/a	n/a	n/a
496.575	0.0	nontarget	5	496575	o	0	18.0	n/a	n/a	3
499.058	0.0	nontarget	5	499058	g	0	46.0	n/a	n/a	3
501.224	0.0	nontarget	5	501224	e	0	27.0	n/a	n/a	3
503.691	0.0	nontarget	5	503691	ö	0	45.0	n/a	n/a	3
506.108	0.0	nontarget	5	506108	ß	0	42.0	n/a	n/a	3
508.541	0.0	nontarget	5	508541	c	0	43.0	n/a	n/a	3
511.041	0.0	nontarget	5	511041	j	0	47.0	n/a	n/a	3
513.391	0.0	nontarget	5	513391	b	0	38.0	n/a	n/a	3
515.607	0.0	nontarget	5	515607	o	0	30.0	n/a	n/a	3
517.74	0.0	nontarget	5	517740	k	0	25.0	n/a	n/a	3
519.79	0.0	nontarget	5	519790	ü	0	20.0	n/a	n/a	3
522.007	0.0	nontarget	5	522007	j	0	30.0	n/a	n/a	3
524.19	0.0	nontarget	5	524190	w	0	28.0	n/a	n/a	3
526.323	0.0	nontarget	5	526323	ä	0	25.0	n/a	n/a	3
528.44	0.0	nontarget	5	528440	h	0	24.0	n/a	n/a	3
530.907	0.0	nontarget	5	530907	m	0	45.0	n/a	n/a	3
532.94	0.0	nontarget	5	532940	n	0	19.0	n/a	n/a	3
535.173	0.0	target	6	535173	e	1	31.0	1	0.4393352	3
535.49	0.5	BAD keypress	2	535490	n/a	n/a	n/a	n/a	n/a	n/a
535.74	0.0	keypress	4	535740	n/a	n/a	n/a	n/a	n/a	n/a
537.223	0.0	target	6	537223	k	1	29.0	1	0.4212713	3
537.54	0.5	BAD keypress	2	537540	n/a	n/a	n/a	n/a	n/a	n/a
537.79	0.0	keypress	4	537790	n/a	n/a	n/a	n/a	n/a	n/a
539.389	0.0	nontarget	5	539389	u	0	37.0	n/a	n/a	3
541.739	0.0	target	6	541739	u	1	38.0	1	0.4324632	3
542.039	0.5	BAD keypress	2	542039	n/a	n/a	n/a	n/a	n/a	n/a
542.289	0.0	keypress	4	542289	n/a	n/a	n/a	n/a	n/a	n/a
544.023	0.0	nontarget	5	544023	w	0	45.0	n/a	n/a	3
546.372	0.0	nontarget	5	546372	q	0	38.0	n/a	n/a	3
548.589	0.0	nontarget	5	548589	j	0	30.0	n/a	n/a	3
551.039	0.0	nontarget	5	551039	e	0	44.0	n/a	n/a	3
553.022	0.0	nontarget	5	553022	h	0	16.0	n/a	n/a	3
555.555	0.0	nontarget	5	555555	o	0	49.0	n/a	n/a	3
557.522	0.0	nontarget	5	557522	w	0	15.0	n/a	n/a	3
559.489	0.0	nontarget	5	559489	ä	0	15.0	n/a	n/a	3
561.472	0.0	nontarget	5	561472	q	0	16.0	n/a	n/a	3
563.455	0.0	nontarget	5	563455	n	0	16.0	n/a	n/a	3
565.938	0.0	nontarget	5	565938	t	0	46.0	n/a	n/a	3
568.038	0.0	nontarget	5	568038	p	0	23.0	n/a	n/a	3
570.121	0.0	nontarget	5	570121	r	0	22.0	n/a	n/a	3
572.121	0.0	nontarget	5	572121	q	0	17.0	n/a	n/a	3
574.371	0.0	target	6	574371	h	1	32.0	1	0.4064952	3
574.655	0.5	BAD keypress	2	574655	n/a	n/a	n/a	n/a	n/a	n/a
574.905	0.0	keypress	4	574905	n/a	n/a	n/a	n/a	n/a	n/a
576.271	0.0	nontarget	5	576271	i	0	23.0	n/a	n/a	3
578.538	0.0	nontarget	5	578538	w	0	33.0	n/a	n/a	3
580.888	0.0	nontarget	5	580888	q	0	38.0	n/a	n/a	3
583.404	0.0	target	6	583404	w	1	48.0	1	0.3808813	3
583.688	0.5	BAD keypress	2	583688	n/a	n/a	n/a	n/a	n/a	n/a
583.938	0.0	keypress	4	583938	n/a	n/a	n/a	n/a	n/a	n/a
585.637	0.0	nontarget	5	585637	c	0	43.0	n/a	n/a	3
587.604	0.0	nontarget	5	587604	j	0	15.0	n/a	n/a	3
589.954	0.0	nontarget	5	589954	z	0	38.0	n/a	n/a	3
592.27	0.0	nontarget	5	592270	v	0	36.0	n/a	n/a	3
594.237	0.0	nontarget	5	594237	ä	0	15.0	n/a	n/a	3
596.52	0.0	nontarget	5	596520	g	0	34.0	n/a	n/a	3
598.787	0.0	nontarget	5	598787	b	0	33.0	n/a	n/a	3
600.903	0.0	nontarget	5	600903	j	0	24.0	n/a	n/a	3
603.103	0.0	nontarget	5	603103	v	0	29.0	n/a	n/a	3
605.437	0.0	nontarget	5	605437	t	0	37.0	n/a	n/a	3
607.786	0.0	nontarget	5	607786	i	0	38.0	n/a	n/a	3
610.003	0.0	nontarget	5	610003	y	0	30.0	n/a	n/a	3
612.036	0.0	nontarget	5	612036	ä	0	19.0	n/a	n/a	3
614.236	0.0	nontarget	5	614236	d	0	29.0	n/a	n/a	3
616.536	0.0	target	6	616536	y	1	35.0	1	0.3988045	3
616.803	0.5	BAD keypress	2	616803	n/a	n/a	n/a	n/a	n/a	n/a
617.053	0.0	keypress	4	617053	n/a	n/a	n/a	n/a	n/a	n/a
618.369	0.0	target	6	618369	q	1	20.0	1	0.3574576	3
618.603	0.5	BAD keypress	2	618603	n/a	n/a	n/a	n/a	n/a	n/a
618.853	0.0	keypress	4	618853	n/a	n/a	n/a	n/a	n/a	n/a
620.153	0.0	nontarget	5	620153	k	0	19.0	n/a	n/a	3
622.286	0.0	target	6	622286	z	1	25.0	1	0.3607067	3
622.519	0.5	BAD keypress	2	622519	n/a	n/a	n/a	n/a	n/a	n/a
622.769	0.0	keypress	4	622769	n/a	n/a	n/a	n/a	n/a	n/a
624.219	0.0	nontarget	5	624219	ö	0	28.0	n/a	n/a	3
626.252	0.0	nontarget	5	626252	w	0	19.0	n/a	n/a	3
628.802	0.0	nontarget	5	628802	s	0	50.0	n/a	n/a	3
630.852	0.0	nontarget	5	630852	q	0	20.0	n/a	n/a	3
633.385	0.0	nontarget	5	633385	ß	0	49.0	n/a	n/a	3
635.802	0.0	nontarget	5	635802	r	0	42.0	n/a	n/a	3
638.285	0.0	target	6	638285	z	1	46.0	1	0.4241987	3
638.569	0.5	BAD keypress	2	638569	n/a	n/a	n/a	n/a	n/a	n/a
638.819	0.0	keypress	4	638819	n/a	n/a	n/a	n/a	n/a	n/a
640.568	0.0	target	6	640568	a	1	46.0	1	0.3648573	3
640.802	0.5	BAD keypress	2	640802	n/a	n/a	n/a	n/a	n/a	n/a
641.052	0.0	keypress	4	641052	n/a	n/a	n/a	n/a	n/a	n/a
642.152	10.966000000000008	BAD_break	3	642152	n/a	n/a	n/a	n/a	n/a	n/a
653.618	0.0	nontarget	5	653618	f	0	46.0	n/a	n/a	4
655.601	0.0	target	6	655601	b	1	16.0	1	0.4351815	4
655.901	0.5	BAD keypress	2	655901	n/a	n/a	n/a	n/a	n/a	n/a
656.151	0.0	keypress	4	656151	n/a	n/a	n/a	n/a	n/a	n/a
657.884	0.0	nontarget	5	657884	e	0	45.0	n/a	n/a	4
660.251	0.0	nontarget	5	660251	u	0	39.0	n/a	n/a	4
662.617	0.0	nontarget	5	662617	i	0	39.0	n/a	n/a	4
664.651	0.0	nontarget	5	664651	y	0	19.0	n/a	n/a	4
666.634	0.0	nontarget	5	666634	s	0	16.0	n/a	n/a	4
669.1	0.0	nontarget	5	669100	m	0	45.0	n/a	n/a	4
671.434	0.0	nontarget	5	671434	q	0	37.0	0	0.3935368	4
671.434	1.0	BAD incorrect	1	671434	q	0	37.0	0	0.3935368	4
671.684	0.5	BAD keypress	2	671684	n/a	n/a	n/a	n/a	n/a	n/a
671.934	0.0	keypress	4	671934	n/a	n/a	n/a	n/a	n/a	n/a
674.184	0.0	nontarget	5	674184	n	0	45.0	n/a	n/a	4
676.167	0.0	nontarget	5	676167	b	0	16.0	n/a	n/a	4
678.167	0.0	nontarget	5	678167	ü	0	17.0	n/a	n/a	4
680.317	0.0	nontarget	5	680317	e	0	26.0	n/a	n/a	4
682.85	0.0	nontarget	5	682850	z	0	49.0	n/a	n/a	4
684.983	0.0	nontarget	5	684983	x	0	25.0	n/a	n/a	4
687.283	0.0	nontarget	5	687283	y	0	35.0	n/a	n/a	4
689.616	0.0	nontarget	5	689616	t	0	37.0	n/a	n/a	4
692.116	0.0	nontarget	5	692116	m	0	47.0	n/a	n/a	4
694.283	0.0	nontarget	5	694283	l	0	27.0	n/a	n/a	4
696.533	0.0	target	6	696533	o	1	32.0	1	0.5088347	4
696.883	0.5	BAD keypress	2	696883	n/a	n/a	n/a	n/a	n/a	n/a
697.133	0.0	keypress	4	697133	n/a	n/a	n/a	n/a	n/a	n/a
698.766	0.0	nontarget	5	698766	n	0	39.0	n/a	n/a	4
700.766	0.0	target	6	700766	i	1	17.0	1	0.451491	4
701.099	0.5	BAD keypress	2	701099	n/a	n/a	n/a	n/a	n/a	n/a
701.349	0.0	keypress	4	701349	n/a	n/a	n/a	n/a	n/a	n/a
702.649	0.0	nontarget	5	702649	c	0	19.0	n/a	n/a	4
704.916	0.0	target	6	704916	c	1	33.0	1	0.3974062	4
705.166	0.5	BAD keypress	2	705166	n/a	n/a	n/a	n/a	n/a	n/a
705.416	0.0	keypress	4	705416	n/a	n/a	n/a	n/a	n/a	n/a
706.665	0.0	target	6	706665	j	1	16.0	1	0.5034041	4
707.032	0.5	BAD keypress	2	707032	n/a	n/a	n/a	n/a	n/a	n/a
707.282	0.0	keypress	4	707282	n/a	n/a	n/a	n/a	n/a	n/a
708.882	0.0	target	6	708882	m	1	36.0	1	0.3826627	4
709.115	0.5	BAD keypress	2	709115	n/a	n/a	n/a	n/a	n/a	n/a
709.365	0.0	keypress	4	709365	n/a	n/a	n/a	n/a	n/a	n/a
710.765	0.0	nontarget	5	710765	n	0	25.0	n/a	n/a	4
713.149	0.0	nontarget	5	713149	r	0	40.0	n/a	n/a	4
715.398	0.0	nontarget	5	715398	e	0	32.0	n/a	n/a	4
717.748	0.0	nontarget	5	717748	q	0	38.0	n/a	n/a	4
719.698	0.0	nontarget	5	719698	n	0	14.0	n/a	n/a	4
722.215	0.0	nontarget	5	722215	z	0	48.0	n/a	n/a	4
724.481	0.0	nontarget	5	724481	u	0	33.0	n/a	n/a	4
726.881	0.0	nontarget	5	726881	h	0	41.0	n/a	n/a	4
729.198	0.0	nontarget	5	729198	ß	0	36.0	n/a	n/a	4
731.248	0.0	nontarget	5	731248	v	0	20.0	n/a	n/a	4
733.548	0.0	nontarget	5	733548	t	0	35.0	n/a	n/a	4
735.881	0.0	target	6	735881	a	1	37.0	1	0.4380362	4
736.164	0.5	BAD keypress	2	736164	n/a	n/a	n/a	n/a	n/a	n/a
736.414	0.0	keypress	4	736414	n/a	n/a	n/a	n/a	n/a	n/a
737.981	0.0	target	6	737981	ä	1	34.0	1	0.4019773	4
738.231	0.5	BAD keypress	2	738231	n/a	n/a	n/a	n/a	n/a	n/a
738.481	0.0	keypress	4	738481	n/a	n/a	n/a	n/a	n/a	n/a
740.131	0.0	nontarget	5	740131	i	0	40.0	n/a	n/a	4
742.247	0.0	nontarget	5	742247	ü	0	24.0	n/a	n/a	4
744.514	0.0	nontarget	5	744514	e	0	33.0	n/a	n/a	4
746.464	0.0	target	6	746464	k	1	14.0	1	0.4624245	4
746.797	0.5	BAD keypress	2	746797	n/a	n/a	n/a	n/a	n/a	n/a
747.047	0.0	keypress	4	747047	n/a	n/a	n/a	n/a	n/a	n/a
748.647	0.0	nontarget	5	748647	x	0	36.0	n/a	n/a	4
751.097	0.0	nontarget	5	751097	q	0	44.0	n/a	n/a	4
753.297	0.0	nontarget	5	753297	k	0	29.0	n/a	n/a	4
755.297	0.0	nontarget	5	755297	ä	0	17.0	n/a	n/a	4
757.713	0.0	nontarget	5	757713	c	0	42.0	n/a	n/a	4
759.863	0.0	nontarget	5	759863	q	0	26.0	n/a	n/a	4
761.913	0.0	nontarget	5	761913	b	0	20.0	n/a	n/a	4
763.913	0.0	nontarget	5	763913	g	0	17.0	n/a	n/a	4
766.146	0.0	nontarget	5	766146	x	0	31.0	n/a	n/a	4
768.479	0.0	nontarget	5	768479	v	0	37.0	n/a	n/a	4
770.929	0.0	target	6	770929	e	1	44.0	1	0.4430638	4
771.229	0.5	BAD keypress	2	771229	n/a	n/a	n/a	n/a	n/a	n/a
771.479	0.0	keypress	4	771479	n/a	n/a	n/a	n/a	n/a	n/a
773.046	0.0	nontarget	5	773046	b	0	35.0	n/a	n/a	4
775.196	0.0	target	6	775196	g	1	26.0	1	0.4003719	4
775.429	0.5	BAD keypress	2	775429	n/a	n/a	n/a	n/a	n/a	n/a
775.679	0.0	keypress	4	775679	n/a	n/a	n/a	n/a	n/a	n/a
777.129	0.0	nontarget	5	777129	o	0	28.0	n/a	n/a	4
779.179	0.0	nontarget	5	779179	ö	0	20.0	n/a	n/a	4
781.179	0.0	target	6	781179	b	1	17.0	1	0.4010159	4
781.462	0.5	BAD keypress	2	781462	n/a	n/a	n/a	n/a	n/a	n/a
781.712	0.0	keypress	4	781712	n/a	n/a	n/a	n/a	n/a	n/a
783.445	0.0	nontarget	5	783445	z	0	45.0	n/a	n/a	4
785.879	0.0	nontarget	5	785879	t	0	43.0	n/a	n/a	4
787.912	0.0	nontarget	5	787912	p	0	19.0	n/a	n/a	4
790.195	0.0	nontarget	5	790195	k	0	34.0	n/a	n/a	4
792.345	0.0	target	6	792345	j	1	26.0	1	0.4499596	4
792.628	0.5	BAD keypress	2	792628	n/a	n/a	n/a	n/a	n/a	n/a
792.878	0.0	keypress	4	792878	n/a	n/a	n/a	n/a	n/a	n/a
794.412	0.0	nontarget	5	794412	r	0	33.0	n/a	n/a	4
796.962	0.0	target	6	796962	y	1	50.0	1	0.4251869	4
797.245	0.5	BAD keypress	2	797245	n/a	n/a	n/a	n/a	n/a	n/a
797.495	0.0	keypress	4	797495	n/a	n/a	n/a	n/a	n/a	n/a
798.595	19.048999999999975	BAD_break	3	798595	n/a	n/a	n/a	n/a	n/a	n/a
818.144	0.0	nontarget	5	818144	o	0	27.0	n/a	n/a	5
820.61	0.0	nontarget	5	820610	g	0	45.0	n/a	n/a	5
822.794	0.0	nontarget	5	822794	m	0	28.0	n/a	n/a	5
825.194	0.0	nontarget	5	825194	s	0	41.0	n/a	n/a	5
827.727	0.0	nontarget	5	827727	v	0	49.0	n/a	n/a	5
830.177	0.0	nontarget	5	830177	c	0	44.0	n/a	n/a	5
832.177	0.0	nontarget	5	832177	ä	0	17.0	n/a	n/a	5
834.543	0.0	target	6	834543	w	1	39.0	1	0.4090157	5
834.827	0.5	BAD keypress	2	834827	n/a	n/a	n/a	n/a	n/a	n/a
835.077	0.0	keypress	4	835077	n/a	n/a	n/a	n/a	n/a	n/a
836.776	0.0	target	6	836776	ü	1	43.0	1	0.3837182	5
837.027	0.5	BAD keypress	2	837027	n/a	n/a	n/a	n/a	n/a	n/a
837.277	0.0	keypress	4	837277	n/a	n/a	n/a	n/a	n/a	n/a
838.893	0.0	nontarget	5	838893	d	0	37.0	n/a	n/a	5
841.01	0.0	target	6	841010	x	1	24.0	1	0.3741498	5
841.226	0.5	BAD keypress	2	841226	n/a	n/a	n/a	n/a	n/a	n/a
841.476	0.0	keypress	4	841476	n/a	n/a	n/a	n/a	n/a	n/a
842.776	0.0	nontarget	5	842776	c	0	19.0	n/a	n/a	5
845.009	0.0	nontarget	5	845009	y	0	31.0	n/a	n/a	5
847.393	0.0	nontarget	5	847393	f	0	40.0	n/a	n/a	5
849.859	0.0	nontarget	5	849859	n	0	45.0	n/a	n/a	5
851.909	0.0	nontarget	5	851909	l	0	20.0	n/a	n/a	5
853.892	0.0	target	6	853892	n	1	16.0	1	0.402525	5
854.126	0.5	BAD keypress	2	854126	n/a	n/a	n/a	n/a	n/a	n/a
854.376	0.0	keypress	4	854376	n/a	n/a	n/a	n/a	n/a	n/a
855.992	0.0	nontarget	5	855992	e	0	38.0	n/a	n/a	5
858.409	0.0	nontarget	5	858409	ö	0	42.0	n/a	n/a	5
860.625	0.0	nontarget	5	860625	r	0	30.0	n/a	n/a	5
862.809	0.0	nontarget	5	862809	u	0	28.0	n/a	n/a	5
865.042	0.0	nontarget	5	865042	ß	0	31.0	n/a	n/a	5
867.575	0.0	nontarget	5	867575	c	0	49.0	n/a	n/a	5
869.692	0.0	nontarget	5	869692	r	0	24.0	n/a	n/a	5
872.142	0.0	nontarget	5	872142	ö	0	44.0	n/a	n/a	5
874.191	0.0	nontarget	5	874191	z	0	20.0	n/a	n/a	5
876.675	0.0	nontarget	5	876675	p	0	46.0	n/a	n/a	5
878.941	0.0	nontarget	5	878941	i	0	33.0	n/a	n/a	5
881.141	0.0	nontarget	5	881141	c	0	29.0	n/a	n/a	5
883.691	0.0	target	6	883691	d	1	50.0	1	0.4097369	5
883.958	0.5	BAD keypress	2	883958	n/a	n/a	n/a	n/a	n/a	n/a
884.208	0.0	keypress	4	884208	n/a	n/a	n/a	n/a	n/a	n/a
886.024	0.0	target	6	886024	f	1	50.0	1	0.4124615	5
886.291	0.5	BAD keypress	2	886291	n/a	n/a	n/a	n/a	n/a	n/a
886.541	0.0	keypress	4	886541	n/a	n/a	n/a	n/a	n/a	n/a
887.874	0.0	target	6	887874	r	1	21.0	1	0.3703805	5
888.108	0.5	BAD keypress	2	888108	n/a	n/a	n/a	n/a	n/a	n/a
888.358	0.0	keypress	4	888358	n/a	n/a	n/a	n/a	n/a	n/a
889.741	0.0	target	6	889741	o	1	24.0	1	0.3916817	5
889.991	0.5	BAD keypress	2	889991	n/a	n/a	n/a	n/a	n/a	n/a
890.241	0.0	keypress	4	890241	n/a	n/a	n/a	n/a	n/a	n/a
891.957	0.0	nontarget	5	891957	z	0	44.0	n/a	n/a	5
894.307	0.0	nontarget	5	894307	f	0	38.0	n/a	n/a	5
896.557	0.0	nontarget	5	896557	d	0	32.0	n/a	n/a	5
898.507	0.0	nontarget	5	898507	r	0	14.0	n/a	n/a	5
900.624	0.0	nontarget	5	900624	y	0	24.0	n/a	n/a	5
902.607	0.0	nontarget	5	902607	s	0	16.0	n/a	n/a	5
904.623	0.0	nontarget	5	904623	x	0	18.0	n/a	n/a	5
906.69	0.0	target	6	906690	ä	1	21.0	1	0.4653157	5
906.99	0.5	BAD keypress	2	906990	n/a	n/a	n/a	n/a	n/a	n/a
907.24	0.0	keypress	4	907240	n/a	n/a	n/a	n/a	n/a	n/a
908.673	0.0	target	6	908673	r	1	27.0	1	0.4018749	5
908.907	0.5	BAD keypress	2	908907	n/a	n/a	n/a	n/a	n/a	n/a
909.157	0.0	keypress	4	909157	n/a	n/a	n/a	n/a	n/a	n/a
910.44	0.0	nontarget	5	910440	n	0	18.0	n/a	n/a	5
912.723	0.0	nontarget	5	912723	z	0	34.0	n/a	n/a	5
915.273	0.0	nontarget	5	915273	x	0	50.0	n/a	n/a	5
917.556	0.0	target	6	917556	b	1	34.0	1	0.4143234	5
917.823	0.5	BAD keypress	2	917823	n/a	n/a	n/a	n/a	n/a	n/a
918.073	0.0	keypress	4	918073	n/a	n/a	n/a	n/a	n/a	n/a
919.306	0.0	target	6	919306	q	1	14.0	1	0.3922561	5
919.523	0.5	BAD keypress	2	919523	n/a	n/a	n/a	n/a	n/a	n/a
919.773	0.0	keypress	4	919773	n/a	n/a	n/a	n/a	n/a	n/a
921.439	0.0	nontarget	5	921439	t	0	41.0	n/a	n/a	5
923.839	0.0	nontarget	5	923839	i	0	41.0	n/a	n/a	5
925.939	0.0	nontarget	5	925939	o	0	23.0	n/a	n/a	5
928.356	0.0	nontarget	5	928356	c	0	42.0	n/a	n/a	5
930.572	0.0	nontarget	5	930572	ß	0	30.0	n/a	n/a	5
932.589	0.0	nontarget	5	932589	ü	0	18.0	n/a	n/a	5
934.622	0.0	target	6	934622	y	1	19.0	1	0.419208	5
934.872	0.5	BAD keypress	2	934872	n/a	n/a	n/a	n/a	n/a	n/a
935.122	0.0	keypress	4	935122	n/a	n/a	n/a	n/a	n/a	n/a
936.605	0.0	nontarget	5	936605	d	0	30.0	n/a	n/a	5
939.139	0.0	nontarget	5	939139	m	0	49.0	n/a	n/a	5
941.339	0.0	nontarget	5	941339	x	0	29.0	n/a	n/a	5
943.805	0.0	nontarget	5	943805	ß	0	45.0	n/a	n/a	5
946.205	0.0	nontarget	5	946205	p	0	41.0	n/a	n/a	5
948.172	0.0	target	6	948172	h	1	15.0	1	0.3730159	5
948.388	0.5	BAD keypress	2	948388	n/a	n/a	n/a	n/a	n/a	n/a
948.638	0.0	keypress	4	948638	n/a	n/a	n/a	n/a	n/a	n/a
949.872	0.0	nontarget	5	949872	z	0	15.0	n/a	n/a	5
952.071	0.0	nontarget	5	952071	v	0	29.0	n/a	n/a	5
954.505	0.0	nontarget	5	954505	f	0	43.0	n/a	n/a	5
956.521	0.0	nontarget	5	956521	a	0	18.0	n/a	n/a	5
958.488	0.0	nontarget	5	958488	h	0	15.0	n/a	n/a	5
960.838	0.0	nontarget	5	960838	t	0	38.0	n/a	n/a	5
961.938	18.081999999999997	BAD_break	3	961938	n/a	n/a	n/a	n/a	n/a	n/a
980.52	0.0	nontarget	5	980520	o	0	50.0	n/a	n/a	6
983.037	0.0	target	6	983037	p	1	48.0	1	0.3534924	6
983.237	0.5	BAD keypress	2	983237	n/a	n/a	n/a	n/a	n/a	n/a
983.487	0.0	keypress	4	983487	n/a	n/a	n/a	n/a	n/a	n/a
984.737	0.0	nontarget	5	984737	m	0	16.0	n/a	n/a	6
987.253	0.0	nontarget	5	987253	v	0	48.0	n/a	n/a	6
989.77	0.0	nontarget	5	989770	ä	0	48.0	n/a	n/a	6
991.853	0.0	nontarget	5	991853	ü	0	22.0	n/a	n/a	6
994.403	0.0	nontarget	5	994403	b	0	50.0	n/a	n/a	6
996.736	0.0	nontarget	5	996736	a	0	37.0	n/a	n/a	6
999.186	0.0	nontarget	5	999186	x	0	44.0	n/a	n/a	6
1001.519	0.0	nontarget	5	1001519	l	0	37.0	n/a	n/a	6
1003.669	0.0	target	6	1003669	v	1	26.0	1	0.455659	6
1003.986	0.5	BAD keypress	2	1003986	n/a	n/a	n/a	n/a	n/a	n/a
1004.236	0.0	keypress	4	1004236	n/a	n/a	n/a	n/a	n/a	n/a
1005.969	0.0	nontarget	5	1005969	f	0	44.0	n/a	n/a	6
1008.286	0.0	target	6	1008286	i	1	36.0	1	0.414841	6
1008.569	0.5	BAD keypress	2	1008569	n/a	n/a	n/a	n/a	n/a	n/a
1008.819	0.0	keypress	4	1008819	n/a	n/a	n/a	n/a	n/a	n/a
1010.486	0.0	target	6	1010486	ü	1	41.0	1	0.3747123	6
1010.752	0.5	BAD keypress	2	1010752	n/a	n/a	n/a	n/a	n/a	n/a
1011.002	0.0	keypress	4	1011002	n/a	n/a	n/a	n/a	n/a	n/a
1012.235	0.0	nontarget	5	1012235	l	0	15.0	n/a	n/a	6
1014.402	0.0	nontarget	5	1014402	u	0	27.0	n/a	n/a	6
1016.419	0.0	nontarget	5	1016419	ß	0	18.0	n/a	n/a	6
1018.402	0.0	target	6	1018402	w	1	16.0	1	0.474055	6
1018.752	0.5	BAD keypress	2	1018752	n/a	n/a	n/a	n/a	n/a	n/a
1019.002	0.0	keypress	4	1019002	n/a	n/a	n/a	n/a	n/a	n/a
1020.252	0.0	nontarget	5	1020252	p	0	16.0	n/a	n/a	6
1022.552	0.0	nontarget	5	1022552	b	0	35.0	n/a	n/a	6
1024.868	0.0	target	6	1024868	t	1	36.0	1	0.390992	6
1025.118	0.5	BAD keypress	2	1025118	n/a	n/a	n/a	n/a	n/a	n/a
1025.368	0.0	keypress	4	1025368	n/a	n/a	n/a	n/a	n/a	n/a
1026.818	0.0	nontarget	5	1026818	e	0	28.0	n/a	n/a	6
1028.818	0.0	nontarget	5	1028818	q	0	17.0	n/a	n/a	6
1031.051	0.0	nontarget	5	1031051	g	0	31.0	n/a	n/a	6
1033.268	0.0	nontarget	5	1033268	y	0	30.0	n/a	n/a	6
1035.601	0.0	target	6	1035601	p	1	37.0	1	0.4255771	6
1035.901	0.5	BAD keypress	2	1035901	n/a	n/a	n/a	n/a	n/a	n/a
1036.151	0.0	keypress	4	1036151	n/a	n/a	n/a	n/a	n/a	n/a
1037.384	0.0	nontarget	5	1037384	s	0	15.0	n/a	n/a	6
1039.468	0.0	nontarget	5	1039468	ß	0	22.0	n/a	n/a	6
1041.484	0.0	nontarget	5	1041484	h	0	18.0	n/a	n/a	6
1043.917	0.0	target	6	1043917	r	1	43.0	1	0.3806812	6
1044.151	0.5	BAD keypress	2	1044151	n/a	n/a	n/a	n/a	n/a	n/a
1044.401	0.0	keypress	4	1044401	n/a	n/a	n/a	n/a	n/a	n/a
1046.084	0.0	nontarget	5	1046084	s	0	42.0	n/a	n/a	6
1048.117	0.0	nontarget	5	1048117	l	0	19.0	n/a	n/a	6
1050.101	0.0	nontarget	5	1050101	ä	0	16.0	n/a	n/a	6
1052.584	0.0	nontarget	5	1052584	g	0	46.0	n/a	n/a	6
1054.684	0.0	nontarget	5	1054684	e	0	23.0	n/a	n/a	6
1057.067	0.0	nontarget	5	1057067	q	0	40.0	n/a	n/a	6
1059.283	0.0	nontarget	5	1059283	a	0	30.0	n/a	n/a	6
1061.617	0.0	nontarget	5	1061617	s	0	37.0	n/a	n/a	6
1063.933	0.0	target	6	1063933	c	1	36.0	1	0.3635583	6
1064.133	0.5	BAD keypress	2	1064133	n/a	n/a	n/a	n/a	n/a	n/a
1064.383	0.0	keypress	4	1064383	n/a	n/a	n/a	n/a	n/a	n/a
1066.15	0.0	nontarget	5	1066150	v	0	47.0	n/a	n/a	6
1068.2	0.0	nontarget	5	1068200	p	0	20.0	n/a	n/a	6
1070.483	0.0	nontarget	5	1070483	ö	0	34.0	n/a	n/a	6
1072.833	0.0	nontarget	5	1072833	x	0	38.0	n/a	n/a	6
1075.049	0.0	nontarget	5	1075049	k	0	30.0	n/a	n/a	6
1077.516	0.0	nontarget	5	1077516	a	0	45.0	n/a	n/a	6
1080.016	0.0	target	6	1080016	k	1	47.0	1	0.4076184	6
1080.283	0.5	BAD keypress	2	1080283	n/a	n/a	n/a	n/a	n/a	n/a
1080.533	0.0	keypress	4	1080533	n/a	n/a	n/a	n/a	n/a	n/a
1082.049	0.0	nontarget	5	1082049	t	0	31.0	n/a	n/a	6
1084.282	0.0	nontarget	5	1084282	ö	0	31.0	n/a	n/a	6
1086.249	0.0	nontarget	5	1086249	d	0	15.0	n/a	n/a	6
1088.515	0.0	nontarget	5	1088515	a	0	33.0	n/a	n/a	6
1091.049	0.0	target	6	1091049	s	1	49.0	1	0.4781987	6
1091.382	0.5	BAD keypress	2	1091382	n/a	n/a	n/a	n/a	n/a	n/a
1091.632	0.0	keypress	4	1091632	n/a	n/a	n/a	n/a	n/a	n/a
1093.449	0.0	nontarget	5	1093449	p	0	50.0	n/a	n/a	6
1095.798	0.0	nontarget	5	1095798	x	0	38.0	n/a	n/a	6
1098.198	0.0	nontarget	5	1098198	g	0	41.0	n/a	n/a	6
1100.198	0.0	nontarget	5	1100198	v	0	17.0	n/a	n/a	6
1102.465	0.0	nontarget	5	1102465	n	0	33.0	n/a	n/a	6
1104.515	0.0	nontarget	5	1104515	k	0	20.0	n/a	n/a	6
1106.515	0.0	nontarget	5	1106515	l	0	17.0	n/a	n/a	6
1109.048	0.0	target	6	1109048	v	1	49.0	1	0.3817814	6
1109.265	0.5	BAD keypress	2	1109265	n/a	n/a	n/a	n/a	n/a	n/a
1109.515	0.0	keypress	4	1109515	n/a	n/a	n/a	n/a	n/a	n/a
1110.781	0.0	nontarget	5	1110781	e	0	17.0	n/a	n/a	6
1113.098	0.0	nontarget	5	1113098	i	0	36.0	n/a	n/a	6
1115.198	0.0	nontarget	5	1115198	s	0	23.0	n/a	n/a	6
1117.598	0.0	target	6	1117598	c	1	41.0	1	0.3755974	6
1117.831	0.5	BAD keypress	2	1117831	n/a	n/a	n/a	n/a	n/a	n/a
1118.081	0.0	keypress	4	1118081	n/a	n/a	n/a	n/a	n/a	n/a
1119.781	0.0	nontarget	5	1119781	f	0	43.0	n/a	n/a	6
1122.247	0.0	nontarget	5	1122247	u	0	45.0	n/a	n/a	6
1124.597	0.0	target	6	1124597	d	1	38.0	1	0.415422	6
1124.864	0.5	BAD keypress	2	1124864	n/a	n/a	n/a	n/a	n/a	n/a
1125.114	0.0	keypress	4	1125114	n/a	n/a	n/a	n/a	n/a	n/a
1126.214	19.46600000000012	BAD_break	3	1126214	n/a	n/a	n/a	n/a	n/a	n/a
1146.18	0.0	nontarget	5	1146180	m	0	40.0	n/a	n/a	7
1148.146	0.0	nontarget	5	1148146	h	0	15.0	n/a	n/a	7
1150.429	0.0	nontarget	5	1150429	n	0	34.0	n/a	n/a	7
1152.396	0.0	nontarget	5	1152396	e	0	15.0	n/a	n/a	7
1154.613	0.0	nontarget	5	1154613	d	0	30.0	n/a	n/a	7
1156.962	0.0	nontarget	5	1156962	ß	0	38.0	n/a	n/a	7
1159.046	0.0	nontarget	5	1159046	v	0	22.0	n/a	n/a	7
1161.146	0.0	nontarget	5	1161146	z	0	23.0	n/a	n/a	7
1163.546	0.0	nontarget	5	1163546	j	0	41.0	n/a	n/a	7
1165.962	0.0	target	6	1165962	g	1	42.0	1	0.4717541	7
1166.296	0.5	BAD keypress	2	1166296	n/a	n/a	n/a	n/a	n/a	n/a
1166.546	0.0	keypress	4	1166546	n/a	n/a	n/a	n/a	n/a	n/a
1167.862	0.0	nontarget	5	1167862	d	0	20.0	n/a	n/a	7
1170.262	0.0	nontarget	5	1170262	m	0	41.0	n/a	n/a	7
1172.545	0.0	nontarget	5	1172545	g	0	34.0	n/a	n/a	7
1174.995	0.0	target	6	1174995	z	1	44.0	1	0.3981022	7
1175.228	0.5	BAD keypress	2	1175228	n/a	n/a	n/a	n/a	n/a	n/a
1175.478	0.0	keypress	4	1175478	n/a	n/a	n/a	n/a	n/a	n/a
1177.095	0.0	nontarget	5	1177095	w	0	37.0	n/a	n/a	7
1179.411	0.0	nontarget	5	1179411	q	0	36.0	n/a	n/a	7
1181.945	0.0	target	6	1181945	x	1	49.0	1	0.4080334	7
1182.195	0.5	BAD keypress	2	1182195	n/a	n/a	n/a	n/a	n/a	n/a
1182.445	0.0	keypress	4	1182445	n/a	n/a	n/a	n/a	n/a	n/a
1183.928	0.0	nontarget	5	1183928	v	0	30.0	n/a	n/a	7
1186.128	0.0	nontarget	5	1186128	y	0	29.0	n/a	n/a	7
1188.311	0.0	target	6	1188311	w	1	28.0	1	0.4091752	7
1188.561	0.5	BAD keypress	2	1188561	n/a	n/a	n/a	n/a	n/a	n/a
1188.811	0.0	keypress	4	1188811	n/a	n/a	n/a	n/a	n/a	n/a
1190.461	0.0	nontarget	5	1190461	ü	0	40.0	n/a	n/a	7
1192.911	0.0	nontarget	5	1192911	s	0	44.0	n/a	n/a	7
1195.111	0.0	nontarget	5	1195111	i	0	29.0	n/a	n/a	7
1197.511	0.0	target	6	1197511	a	1	41.0	1	0.4409912	7
1197.778	0.5	BAD keypress	2	1197778	n/a	n/a	n/a	n/a	n/a	n/a
1198.028	0.0	keypress	4	1198028	n/a	n/a	n/a	n/a	n/a	n/a
1199.577	0.0	nontarget	5	1199577	j	0	34.0	n/a	n/a	7
1201.677	0.0	nontarget	5	1201677	b	0	23.0	n/a	n/a	7
1203.777	0.0	nontarget	5	1203777	o	0	23.0	n/a	n/a	7
1205.994	0.0	nontarget	5	1205994	u	0	30.0	n/a	n/a	7
1208.527	0.0	nontarget	5	1208527	c	0	49.0	n/a	n/a	7
1211.01	0.0	nontarget	5	1211010	n	0	46.0	n/a	n/a	7
1213.377	0.0	nontarget	5	1213377	x	0	39.0	n/a	n/a	7
1215.593	0.0	nontarget	5	1215593	m	0	30.0	n/a	n/a	7
1217.927	0.0	nontarget	5	1217927	d	0	37.0	n/a	n/a	7
1220.293	0.0	target	6	1220293	p	1	39.0	1	0.441158	7
1220.577	0.5	BAD keypress	2	1220577	n/a	n/a	n/a	n/a	n/a	n/a
1220.827	0.0	keypress	4	1220827	n/a	n/a	n/a	n/a	n/a	n/a
1222.51	0.0	nontarget	5	1222510	u	0	42.0	n/a	n/a	7
1224.693	0.0	nontarget	5	1224693	a	0	28.0	n/a	n/a	7
1226.959	0.0	target	6	1226959	g	1	33.0	1	0.4142374	7
1227.21	0.5	BAD keypress	2	1227210	n/a	n/a	n/a	n/a	n/a	n/a
1227.46	0.0	keypress	4	1227460	n/a	n/a	n/a	n/a	n/a	n/a
1228.759	0.0	nontarget	5	1228759	ß	0	19.0	n/a	n/a	7
1230.943	0.0	nontarget	5	1230943	e	0	28.0	n/a	n/a	7
1232.893	0.0	nontarget	5	1232893	ü	0	14.0	n/a	n/a	7
1235.009	0.0	target	6	1235009	u	1	24.0	1	0.3961177	7
1235.243	0.5	BAD keypress	2	1235243	n/a	n/a	n/a	n/a	n/a	n/a
1235.493	0.0	keypress	4	1235493	n/a	n/a	n/a	n/a	n/a	n/a
1236.959	0.0	nontarget	5	1236959	v	0	29.0	n/a	n/a	7
1239.076	0.0	nontarget	5	1239076	w	0	24.0	n/a	n/a	7
1241.209	0.0	nontarget	5	1241209	d	0	25.0	n/a	n/a	7
1243.192	0.0	nontarget	5	1243192	h	0	16.0	n/a	n/a	7
1245.159	0.0	nontarget	5	1245159	o	0	15.0	n/a	n/a	7
1247.259	0.0	nontarget	5	1247259	r	0	23.0	n/a	n/a	7
1249.592	0.0	nontarget	5	1249592	z	0	37.0	n/a	n/a	7
1252.042	0.0	nontarget	5	1252042	v	0	44.0	n/a	n/a	7
1254.375	0.0	nontarget	5	1254375	y	0	37.0	n/a	n/a	7
1256.425	0.0	target	6	1256425	a	1	20.0	1	0.4669175	7
1256.742	0.5	BAD keypress	2	1256742	n/a	n/a	n/a	n/a	n/a	n/a
1256.992	0.0	keypress	4	1256992	n/a	n/a	n/a	n/a	n/a	n/a
1258.575	0.0	nontarget	5	1258575	x	0	36.0	n/a	n/a	7
1261.041	0.0	nontarget	5	1261041	p	0	45.0	n/a	n/a	7
1263.258	0.0	nontarget	5	1263258	b	0	30.0	n/a	n/a	7
1265.724	0.0	nontarget	5	1265724	f	0	45.0	n/a	n/a	7
1268.158	0.0	nontarget	5	1268158	t	0	43.0	n/a	n/a	7
1270.141	0.0	nontarget	5	1270141	o	0	16.0	n/a	n/a	7
1272.124	0.0	nontarget	5	1272124	n	0	16.0	n/a	n/a	7
1274.507	0.0	nontarget	5	1274507	r	0	40.0	n/a	n/a	7
1276.874	0.0	nontarget	5	1276874	p	0	39.0	n/a	n/a	7
1279.307	0.0	nontarget	5	1279307	i	0	43.0	n/a	n/a	7
1281.64	0.0	nontarget	5	1281640	o	0	37.0	n/a	n/a	7
1283.807	0.0	nontarget	5	1283807	ö	0	27.0	n/a	n/a	7
1285.957	0.0	nontarget	5	1285957	h	0	26.0	n/a	n/a	7
1287.94	0.0	nontarget	5	1287940	n	0	16.0	n/a	n/a	7
1290.057	0.0	target	6	1290057	b	1	24.0	1	0.4647063	7
1290.357	0.5	BAD keypress	2	1290357	n/a	n/a	n/a	n/a	n/a	n/a
1290.607	0.0	keypress	4	1290607	n/a	n/a	n/a	n/a	n/a	n/a
1291.707	93.77900000000022	BAD_break	3	1291707	n/a	n/a	n/a	n/a	n/a	n/a
1385.986	0.0	target	6	1385986	ü	1	37.0	1	0.4010952	8
1386.269	0.5	BAD keypress	2	1386269	n/a	n/a	n/a	n/a	n/a	n/a
1386.519	0.0	keypress	4	1386519	n/a	n/a	n/a	n/a	n/a	n/a
1388.202	0.0	nontarget	5	1388202	y	0	41.0	n/a	n/a	8
1390.569	0.0	nontarget	5	1390569	w	0	39.0	n/a	n/a	8
1393.052	0.0	target	6	1393052	l	1	46.0	1	0.4062698	8
1393.336	0.5	BAD keypress	2	1393336	n/a	n/a	n/a	n/a	n/a	n/a
1393.586	0.0	keypress	4	1393586	n/a	n/a	n/a	n/a	n/a	n/a
1395.152	0.0	nontarget	5	1395152	o	0	35.0	n/a	n/a	8
1397.202	0.0	nontarget	5	1397202	m	0	20.0	n/a	n/a	8
1399.702	0.0	target	6	1399702	f	1	47.0	1	0.3640509	8
1399.952	0.5	BAD keypress	2	1399952	n/a	n/a	n/a	n/a	n/a	n/a
1400.202	0.0	keypress	4	1400202	n/a	n/a	n/a	n/a	n/a	n/a
1401.469	0.0	nontarget	5	1401469	z	0	17.0	n/a	n/a	8
1404.018	0.0	nontarget	5	1404018	a	0	50.0	n/a	n/a	8
1406.418	0.0	nontarget	5	1406418	p	0	41.0	n/a	n/a	8
1408.502	0.0	nontarget	5	1408502	n	0	22.0	n/a	n/a	8
1410.601	0.0	target	6	1410601	z	1	23.0	1	0.4878619	8
1410.935	0.5	BAD keypress	2	1410935	n/a	n/a	n/a	n/a	n/a	n/a
1411.185	0.0	keypress	4	1411185	n/a	n/a	n/a	n/a	n/a	n/a
1412.951	0.0	nontarget	5	1412951	m	0	47.0	n/a	n/a	8
1414.918	0.0	target	6	1414918	e	1	15.0	1	0.4269533	8
1415.185	0.5	BAD keypress	2	1415185	n/a	n/a	n/a	n/a	n/a	n/a
1415.435	0.0	keypress	4	1415435	n/a	n/a	n/a	n/a	n/a	n/a
1416.885	0.0	nontarget	5	1416885	ß	0	28.0	n/a	n/a	8
1419.218	0.0	nontarget	5	1419218	d	0	37.0	n/a	n/a	8
1421.351	0.0	nontarget	5	1421351	m	0	25.0	n/a	n/a	8
1423.501	0.0	nontarget	5	1423501	c	0	26.0	n/a	n/a	8
1426.034	0.0	nontarget	5	1426034	j	0	49.0	n/a	n/a	8
1428.134	0.0	nontarget	5	1428134	ß	0	23.0	n/a	n/a	8
1430.151	0.0	nontarget	5	1430151	g	0	18.0	n/a	n/a	8
1432.267	0.0	nontarget	5	1432267	r	0	24.0	n/a	n/a	8
1434.8	0.0	nontarget	5	1434800	l	0	49.0	n/a	n/a	8
1437.3	0.0	nontarget	5	1437300	ä	0	47.0	n/a	n/a	8
1439.767	0.0	nontarget	5	1439767	i	0	45.0	n/a	n/a	8
1442.3	0.0	nontarget	5	1442300	ü	0	49.0	n/a	n/a	8
1444.283	0.0	target	6	1444283	w	1	16.0	1	0.4676555	8
1444.6	0.5	BAD keypress	2	1444600	n/a	n/a	n/a	n/a	n/a	n/a
1444.85	0.0	keypress	4	1444850	n/a	n/a	n/a	n/a	n/a	n/a
1446.517	0.0	nontarget	5	1446517	d	0	41.0	n/a	n/a	8
1449.033	0.0	nontarget	5	1449033	g	0	48.0	n/a	n/a	8
1451.416	0.0	target	6	1451416	s	1	40.0	1	0.4061995	8
1451.716	0.5	BAD keypress	2	1451716	n/a	n/a	n/a	n/a	n/a	n/a
1451.966	0.0	keypress	4	1451966	n/a	n/a	n/a	n/a	n/a	n/a
1453.366	0.0	nontarget	5	1453366	k	0	25.0	n/a	n/a	8
1455.5	0.0	nontarget	5	1455500	i	0	25.0	n/a	n/a	8
1457.866	0.0	nontarget	5	1457866	c	0	39.0	n/a	n/a	8
1459.866	0.0	nontarget	5	1459866	u	0	17.0	n/a	n/a	8
1462.333	0.0	nontarget	5	1462333	b	0	45.0	n/a	n/a	8
1464.882	0.0	nontarget	5	1464882	ß	0	50.0	n/a	n/a	8
1467.282	0.0	target	6	1467282	i	1	41.0	1	0.42714	8
1467.532	0.5	BAD keypress	2	1467532	n/a	n/a	n/a	n/a	n/a	n/a
1467.782	0.0	keypress	4	1467782	n/a	n/a	n/a	n/a	n/a	n/a
1469.149	0.0	target	6	1469149	h	1	23.0	1	0.4482875	8
1469.416	0.5	BAD keypress	2	1469416	n/a	n/a	n/a	n/a	n/a	n/a
1469.666	0.0	keypress	4	1469666	n/a	n/a	n/a	n/a	n/a	n/a
1471.365	0.0	nontarget	5	1471365	z	0	43.0	n/a	n/a	8
1473.549	0.0	nontarget	5	1473549	t	0	28.0	n/a	n/a	8
1475.615	0.0	target	6	1475615	l	1	21.0	1	0.4296124	8
1475.882	0.5	BAD keypress	2	1475882	n/a	n/a	n/a	n/a	n/a	n/a
1476.132	0.0	keypress	4	1476132	n/a	n/a	n/a	n/a	n/a	n/a
1477.882	0.0	nontarget	5	1477882	l	0	46.0	n/a	n/a	8
1479.915	0.0	nontarget	5	1479915	ß	0	19.0	n/a	n/a	8
1482.465	0.0	nontarget	5	1482465	a	0	50.0	n/a	n/a	8
1484.765	0.0	nontarget	5	1484765	u	0	35.0	n/a	n/a	8
1487.098	0.0	nontarget	5	1487098	t	0	37.0	n/a	n/a	8
1489.631	0.0	nontarget	5	1489631	ß	0	49.0	n/a	n/a	8
1491.665	0.0	nontarget	5	1491665	d	0	19.0	n/a	n/a	8
1493.848	0.0	nontarget	5	1493848	s	0	28.0	n/a	n/a	8
1495.881	0.0	nontarget	5	1495881	b	0	19.0	n/a	n/a	8
1498.331	0.0	nontarget	5	1498331	n	0	44.0	n/a	n/a	8
1500.581	0.0	nontarget	5	1500581	h	0	32.0	n/a	n/a	8
1502.631	0.0	nontarget	5	1502631	u	0	20.0	n/a	n/a	8
1504.681	0.0	nontarget	5	1504681	z	0	20.0	n/a	n/a	8
1507.181	0.0	nontarget	5	1507181	ü	0	47.0	n/a	n/a	8
1509.247	0.0	nontarget	5	1509247	m	0	21.0	n/a	n/a	8
1511.38	0.0	nontarget	5	1511380	d	0	25.0	n/a	n/a	8
1513.83	0.0	nontarget	5	1513830	s	0	44.0	n/a	n/a	8
1515.797	0.0	target	6	1515797	q	1	15.0	1	0.4212548	8
1516.064	0.5	BAD keypress	2	1516064	n/a	n/a	n/a	n/a	n/a	n/a
1516.314	0.0	keypress	4	1516314	n/a	n/a	n/a	n/a	n/a	n/a
1517.847	0.0	target	6	1517847	n	1	33.0	1	0.3712522	8
1518.097	0.5	BAD keypress	2	1518097	n/a	n/a	n/a	n/a	n/a	n/a
1518.347	0.0	keypress	4	1518347	n/a	n/a	n/a	n/a	n/a	n/a
1519.797	0.0	nontarget	5	1519797	f	0	28.0	n/a	n/a	8
1522.197	0.0	nontarget	5	1522197	ö	0	41.0	n/a	n/a	8
1524.163	0.0	target	6	1524163	g	1	15.0	1	0.3904008	8
1524.413	0.5	BAD keypress	2	1524413	n/a	n/a	n/a	n/a	n/a	n/a
1524.663	0.0	keypress	4	1524663	n/a	n/a	n/a	n/a	n/a	n/a
1526.463	0.0	nontarget	5	1526463	h	0	49.0	n/a	n/a	8
1528.48	0.0	nontarget	5	1528480	ä	0	18.0	n/a	n/a	8
1530.996	0.0	nontarget	5	1530996	b	0	48.0	n/a	n/a	8
1532.096	10.400000000000093	BAD_break	3	1532096	n/a	n/a	n/a	n/a	n/a	n/a
1542.996	0.0	nontarget	5	1542996	t	0	24.0	n/a	n/a	9
1545.529	0.0	nontarget	5	1545529	x	0	49.0	n/a	n/a	9
1547.779	0.0	nontarget	5	1547779	ö	0	32.0	n/a	n/a	9
1549.962	0.0	target	6	1549962	j	1	28.0	1	0.429751	9
1550.229	0.5	BAD keypress	2	1550229	n/a	n/a	n/a	n/a	n/a	n/a
1550.479	0.0	keypress	4	1550479	n/a	n/a	n/a	n/a	n/a	n/a
1551.845	0.0	nontarget	5	1551845	y	0	22.0	n/a	n/a	9
1554.129	0.0	nontarget	5	1554129	l	0	34.0	n/a	n/a	9
1556.662	0.0	nontarget	5	1556662	w	0	49.0	n/a	n/a	9
1559.212	0.0	nontarget	5	1559212	q	0	50.0	n/a	n/a	9
1561.628	0.0	nontarget	5	1561628	m	0	42.0	n/a	n/a	9
1564.095	0.0	nontarget	5	1564095	a	0	45.0	n/a	n/a	9
1566.045	0.0	nontarget	5	1566045	r	0	14.0	n/a	n/a	9
1568.161	0.0	nontarget	5	1568161	y	0	24.0	n/a	n/a	9
1570.478	0.0	nontarget	5	1570478	n	0	36.0	n/a	n/a	9
1572.461	0.0	nontarget	5	1572461	z	0	16.0	n/a	n/a	9
1574.528	0.0	nontarget	5	1574528	f	0	21.0	n/a	n/a	9
1576.678	0.0	nontarget	5	1576678	c	0	26.0	n/a	n/a	9
1579.127	0.0	target	6	1579127	b	1	44.0	1	0.4624047	9
1579.461	0.5	BAD keypress	2	1579461	n/a	n/a	n/a	n/a	n/a	n/a
1579.711	0.0	keypress	4	1579711	n/a	n/a	n/a	n/a	n/a	n/a
1581.127	0.0	nontarget	5	1581127	o	0	25.0	n/a	n/a	9
1583.244	0.0	nontarget	5	1583244	j	0	24.0	n/a	n/a	9
1585.211	0.0	nontarget	5	1585211	z	0	15.0	n/a	n/a	9
1587.644	0.0	nontarget	5	1587644	ö	0	43.0	n/a	n/a	9
1589.61	0.0	nontarget	5	1589610	b	0	15.0	n/a	n/a	9
1592.077	0.0	nontarget	5	1592077	q	0	45.0	n/a	n/a	9
1594.227	0.0	nontarget	5	1594227	l	0	26.0	n/a	n/a	9
1596.677	0.0	nontarget	5	1596677	p	0	44.0	n/a	n/a	9
1598.81	0.0	nontarget	5	1598810	k	0	25.0	n/a	n/a	9
1600.76	0.0	nontarget	5	1600760	x	0	14.0	n/a	n/a	9
1602.976	0.0	nontarget	5	1602976	ö	0	30.0	n/a	n/a	9
1605.493	0.0	nontarget	5	1605493	w	0	48.0	n/a	n/a	9
1607.726	0.0	nontarget	5	1607726	p	0	31.0	n/a	n/a	9
1610.276	0.0	nontarget	5	1610276	m	0	50.0	n/a	n/a	9
1612.759	0.0	nontarget	5	1612759	n	0	46.0	n/a	n/a	9
1615.026	0.0	target	6	1615026	b	1	33.0	1	0.3854952	9
1615.243	0.5	BAD keypress	2	1615243	n/a	n/a	n/a	n/a	n/a	n/a
1615.493	0.0	keypress	4	1615493	n/a	n/a	n/a	n/a	n/a	n/a
1617.226	0.0	nontarget	5	1617226	i	0	45.0	n/a	n/a	9
1619.342	0.0	target	6	1619342	u	1	24.0	1	0.4366768	9
1619.609	0.5	BAD keypress	2	1619609	n/a	n/a	n/a	n/a	n/a	n/a
1619.859	0.0	keypress	4	1619859	n/a	n/a	n/a	n/a	n/a	n/a
1621.476	0.0	nontarget	5	1621476	r	0	38.0	n/a	n/a	9
1623.742	0.0	nontarget	5	1623742	u	0	33.0	n/a	n/a	9
1625.859	0.0	target	6	1625859	d	1	24.0	1	0.4319602	9
1626.142	0.5	BAD keypress	2	1626142	n/a	n/a	n/a	n/a	n/a	n/a
1626.392	0.0	keypress	4	1626392	n/a	n/a	n/a	n/a	n/a	n/a
1627.925	0.0	nontarget	5	1627925	ö	0	33.0	n/a	n/a	9
1630.475	0.0	nontarget	5	1630475	p	0	50.0	n/a	n/a	9
1632.608	0.0	nontarget	5	1632608	g	0	25.0	n/a	n/a	9
1634.775	0.0	nontarget	5	1634775	c	0	27.0	n/a	n/a	9
1637.225	0.0	nontarget	5	1637225	ö	0	44.0	n/a	n/a	9
1639.208	0.0	nontarget	5	1639208	l	0	16.0	n/a	n/a	9
1641.408	0.0	nontarget	5	1641408	y	0	29.0	n/a	n/a	9
1643.808	0.0	nontarget	5	1643808	ß	0	41.0	n/a	n/a	9
1646.058	0.0	target	6	1646058	r	1	32.0	1	0.391425	9
1646.325	0.5	BAD keypress	2	1646325	n/a	n/a	n/a	n/a	n/a	n/a
1646.575	0.0	keypress	4	1646575	n/a	n/a	n/a	n/a	n/a	n/a
1648.391	0.0	target	6	1648391	q	1	50.0	1	0.4099919	9
1648.675	0.5	BAD keypress	2	1648675	n/a	n/a	n/a	n/a	n/a	n/a
1648.925	0.0	keypress	4	1648925	n/a	n/a	n/a	n/a	n/a	n/a
1650.674	0.0	target	6	1650674	y	1	46.0	1	0.3985746	9
1650.924	0.5	BAD keypress	2	1650924	n/a	n/a	n/a	n/a	n/a	n/a
1651.174	0.0	keypress	4	1651174	n/a	n/a	n/a	n/a	n/a	n/a
1652.708	0.0	target	6	1652708	ä	1	33.0	1	0.381265	9
1652.958	0.5	BAD keypress	2	1652958	n/a	n/a	n/a	n/a	n/a	n/a
1653.208	0.0	keypress	4	1653208	n/a	n/a	n/a	n/a	n/a	n/a
1654.441	0.0	nontarget	5	1654441	k	0	15.0	n/a	n/a	9
1656.841	0.0	nontarget	5	1656841	r	0	41.0	n/a	n/a	9
1659.274	0.0	nontarget	5	1659274	e	0	43.0	n/a	n/a	9
1661.707	0.0	nontarget	5	1661707	v	0	43.0	n/a	n/a	9
1664.19	0.0	target	6	1664190	f	1	46.0	1	0.4176251	9
1664.441	0.5	BAD keypress	2	1664441	n/a	n/a	n/a	n/a	n/a	n/a
1664.691	0.0	keypress	4	1664691	n/a	n/a	n/a	n/a	n/a	n/a
1665.974	0.0	nontarget	5	1665974	l	0	18.0	n/a	n/a	9
1668.057	0.0	nontarget	5	1668057	r	0	22.0	n/a	n/a	9
1670.307	0.0	nontarget	5	1670307	s	0	32.0	n/a	n/a	9
1672.74	0.0	nontarget	5	1672740	n	0	43.0	n/a	n/a	9
1675.19	0.0	nontarget	5	1675190	w	0	44.0	n/a	n/a	9
1677.257	0.0	target	6	1677257	s	1	21.0	1	0.470657	9
1677.557	0.5	BAD keypress	2	1677557	n/a	n/a	n/a	n/a	n/a	n/a
1677.807	0.0	keypress	4	1677807	n/a	n/a	n/a	n/a	n/a	n/a
1679.39	0.0	nontarget	5	1679390	j	0	36.0	n/a	n/a	9
1681.906	0.0	nontarget	5	1681906	q	0	48.0	n/a	n/a	9
1683.856	0.0	target	6	1683856	l	1	14.0	1	0.4785111	9
1684.173	0.5	BAD keypress	2	1684173	n/a	n/a	n/a	n/a	n/a	n/a
1684.423	0.0	keypress	4	1684423	n/a	n/a	n/a	n/a	n/a	n/a
1686.04	0.0	nontarget	5	1686040	f	0	38.0	n/a	n/a	9
1687.989	0.0	nontarget	5	1687989	v	0	14.0	n/a	n/a	9
1689.089	13.816000000000033	BAD_break	3	1689089	n/a	n/a	n/a	n/a	n/a	n/a
1703.405	0.0	nontarget	5	1703405	q	0	29.0	n/a	n/a	10
1705.722	0.0	nontarget	5	1705722	x	0	36.0	n/a	n/a	10
1708.255	0.0	nontarget	5	1708255	o	0	49.0	n/a	n/a	10
1710.372	0.0	nontarget	5	1710372	a	0	24.0	n/a	n/a	10
1712.672	0.0	nontarget	5	1712672	ü	0	35.0	n/a	n/a	10
1714.955	0.0	target	6	1714955	f	1	34.0	1	0.4017105	10
1715.172	0.5	BAD keypress	2	1715172	n/a	n/a	n/a	n/a	n/a	n/a
1715.422	0.0	keypress	4	1715422	n/a	n/a	n/a	n/a	n/a	n/a
1716.822	0.0	nontarget	5	1716822	h	0	25.0	n/a	n/a	10
1719.221	0.0	nontarget	5	1719221	ß	0	41.0	n/a	n/a	10
1721.255	0.0	target	6	1721255	y	1	19.0	1	0.3735473	10
1721.488	0.5	BAD keypress	2	1721488	n/a	n/a	n/a	n/a	n/a	n/a
1721.738	0.0	keypress	4	1721738	n/a	n/a	n/a	n/a	n/a	n/a
1723.338	0.0	nontarget	5	1723338	g	0	37.0	n/a	n/a	10
1725.838	0.0	nontarget	5	1725838	l	0	47.0	n/a	n/a	10
1728.321	0.0	nontarget	5	1728321	ö	0	46.0	n/a	n/a	10
1730.821	0.0	nontarget	5	1730821	h	0	47.0	n/a	n/a	10
1732.821	0.0	nontarget	5	1732821	k	0	17.0	n/a	n/a	10
1735.037	0.0	nontarget	5	1735037	ß	0	30.0	n/a	n/a	10
1737.237	0.0	target	6	1737237	f	1	29.0	1	0.4219045	10
1737.521	0.5	BAD keypress	2	1737521	n/a	n/a	n/a	n/a	n/a	n/a
1737.771	0.0	keypress	4	1737771	n/a	n/a	n/a	n/a	n/a	n/a
1739.387	0.0	target	6	1739387	n	1	38.0	1	0.3837727	10
1739.671	0.5	BAD keypress	2	1739671	n/a	n/a	n/a	n/a	n/a	n/a
1739.921	0.0	keypress	4	1739921	n/a	n/a	n/a	n/a	n/a	n/a
1741.67	0.0	nontarget	5	1741670	r	0	46.0	n/a	n/a	10
1743.887	0.0	nontarget	5	1743887	l	0	30.0	n/a	n/a	10
1746.237	0.0	nontarget	5	1746237	g	0	38.0	n/a	n/a	10
1748.187	0.0	nontarget	5	1748187	ä	0	14.0	n/a	n/a	10
1750.653	0.0	nontarget	5	1750653	k	0	45.0	n/a	n/a	10
1753.187	0.0	nontarget	5	1753187	c	0	49.0	n/a	n/a	10
1755.503	0.0	nontarget	5	1755503	g	0	36.0	n/a	n/a	10
1757.936	0.0	nontarget	5	1757936	r	0	43.0	n/a	n/a	10
1760.22	0.0	nontarget	5	1760220	p	0	34.0	n/a	n/a	10
1762.22	0.0	nontarget	5	1762220	u	0	17.0	n/a	n/a	10
1764.336	0.0	nontarget	5	1764336	h	0	24.0	n/a	n/a	10
1766.353	0.0	nontarget	5	1766353	s	0	18.0	n/a	n/a	10
1768.469	0.0	nontarget	5	1768469	i	0	24.0	n/a	n/a	10
1770.969	0.0	target	6	1770969	i	1	47.0	1	0.4156709	10
1771.269	0.5	BAD keypress	2	1771269	n/a	n/a	n/a	n/a	n/a	n/a
1771.519	0.0	keypress	4	1771519	n/a	n/a	n/a	n/a	n/a	n/a
1773.186	0.0	nontarget	5	1773186	k	0	41.0	n/a	n/a	10
1775.619	0.0	nontarget	5	1775619	ä	0	43.0	n/a	n/a	10
1778.102	0.0	target	6	1778102	u	1	46.0	1	0.4021524	10
1778.352	0.5	BAD keypress	2	1778352	n/a	n/a	n/a	n/a	n/a	n/a
1778.602	0.0	keypress	4	1778602	n/a	n/a	n/a	n/a	n/a	n/a
1779.835	0.0	nontarget	5	1779835	ö	0	15.0	n/a	n/a	10
1782.335	0.0	nontarget	5	1782335	p	0	47.0	n/a	n/a	10
1784.602	0.0	nontarget	5	1784602	i	0	33.0	n/a	n/a	10
1787.002	0.0	nontarget	5	1787002	ü	0	41.0	n/a	n/a	10
1789.202	0.0	nontarget	5	1789202	r	0	29.0	n/a	n/a	10
1791.268	0.0	nontarget	5	1791268	ä	0	21.0	n/a	n/a	10
1793.785	0.0	nontarget	5	1793785	v	0	48.0	n/a	n/a	10
1796.018	0.0	nontarget	5	1796018	s	0	31.0	n/a	n/a	10
1798.068	0.0	nontarget	5	1798068	q	0	20.0	n/a	n/a	10
1800.585	0.0	nontarget	5	1800585	ä	0	48.0	n/a	n/a	10
1803.101	0.0	nontarget	5	1803101	i	0	48.0	n/a	n/a	10
1805.134	0.0	target	6	1805134	e	1	19.0	1	0.488201	10
1805.468	0.5	BAD keypress	2	1805468	n/a	n/a	n/a	n/a	n/a	n/a
1805.718	0.0	keypress	4	1805718	n/a	n/a	n/a	n/a	n/a	n/a
1807.051	0.0	nontarget	5	1807051	t	0	21.0	n/a	n/a	10
1809.218	0.0	nontarget	5	1809218	o	0	27.0	n/a	n/a	10
1811.201	0.0	nontarget	5	1811201	p	0	16.0	n/a	n/a	10
1813.151	0.0	target	6	1813151	t	1	14.0	1	0.4393714	10
1813.467	0.5	BAD keypress	2	1813467	n/a	n/a	n/a	n/a	n/a	n/a
1813.717	0.0	keypress	4	1813717	n/a	n/a	n/a	n/a	n/a	n/a
1815.401	0.0	nontarget	5	1815401	w	0	41.0	n/a	n/a	10
1817.684	0.0	nontarget	5	1817684	f	0	34.0	n/a	n/a	10
1819.684	0.0	nontarget	5	1819684	d	0	17.0	n/a	n/a	10
1821.734	0.0	target	6	1821734	k	1	20.0	1	0.4478011	10
1822.017	0.5	BAD keypress	2	1822017	n/a	n/a	n/a	n/a	n/a	n/a
1822.267	0.0	keypress	4	1822267	n/a	n/a	n/a	n/a	n/a	n/a
1823.617	0.0	nontarget	5	1823617	m	0	22.0	n/a	n/a	10
1825.7	0.0	nontarget	5	1825700	u	0	22.0	n/a	n/a	10
1827.7	0.0	nontarget	5	1827700	k	0	17.0	n/a	n/a	10
1830.0	0.0	target	6	1830000	v	1	35.0	1	0.4209572	10
1830.267	0.5	BAD keypress	2	1830267	n/a	n/a	n/a	n/a	n/a	n/a
1830.517	0.0	keypress	4	1830517	n/a	n/a	n/a	n/a	n/a	n/a
1831.917	0.0	nontarget	5	1831917	i	0	25.0	n/a	n/a	10
1834.066	0.0	nontarget	5	1834066	m	0	26.0	n/a	n/a	10
1836.266	0.0	nontarget	5	1836266	h	0	29.0	n/a	n/a	10
1838.466	0.0	nontarget	5	1838466	f	0	29.0	n/a	n/a	10
1840.833	0.0	nontarget	5	1840833	ß	0	39.0	n/a	n/a	10
1843.199	0.0	nontarget	5	1843199	g	0	39.0	n/a	n/a	10
1845.266	0.0	target	6	1845266	p	1	21.0	1	0.5298116	10
1845.649	0.5	BAD keypress	2	1845649	n/a	n/a	n/a	n/a	n/a	n/a
1845.899	0.0	keypress	4	1845899	n/a	n/a	n/a	n/a	n/a	n/a
1847.699	0.0	nontarget	5	1847699	i	0	49.0	n/a	n/a	10
1848.799	17.298999999999978	BAD_break	3	1848799	n/a	n/a	n/a	n/a	n/a	n/a
1866.598	0.0	nontarget	5	1866598	c	0	14.0	n/a	n/a	11
1868.832	0.0	nontarget	5	1868832	y	0	31.0	n/a	n/a	11
1871.315	0.0	nontarget	5	1871315	o	0	46.0	n/a	n/a	11
1873.581	0.0	nontarget	5	1873581	d	0	33.0	n/a	n/a	11
1875.915	0.0	nontarget	5	1875915	m	0	37.0	n/a	n/a	11
1877.865	0.0	nontarget	5	1877865	e	0	14.0	n/a	n/a	11
1880.031	0.0	nontarget	5	1880031	ß	0	27.0	n/a	n/a	11
1882.331	0.0	nontarget	5	1882331	j	0	35.0	n/a	n/a	11
1884.298	0.0	nontarget	5	1884298	o	0	15.0	n/a	n/a	11
1886.264	0.0	target	6	1886264	ä	1	15.0	1	0.4249163	11
1886.564	0.5	BAD keypress	2	1886564	n/a	n/a	n/a	n/a	n/a	n/a
1886.814	0.0	keypress	4	1886814	n/a	n/a	n/a	n/a	n/a	n/a
1888.364	0.0	nontarget	5	1888364	ü	0	34.0	n/a	n/a	11
1890.831	0.0	nontarget	5	1890831	z	0	45.0	n/a	n/a	11
1893.314	0.0	nontarget	5	1893314	s	0	46.0	n/a	n/a	11
1895.43	0.0	target	6	1895430	s	1	24.0	1	0.4259549	11
1895.697	0.5	BAD keypress	2	1895697	n/a	n/a	n/a	n/a	n/a	n/a
1895.947	0.0	keypress	4	1895947	n/a	n/a	n/a	n/a	n/a	n/a
1897.664	0.0	target	6	1897664	z	1	44.0	1	0.3845249	11
1897.897	0.5	BAD keypress	2	1897897	n/a	n/a	n/a	n/a	n/a	n/a
1898.147	0.0	keypress	4	1898147	n/a	n/a	n/a	n/a	n/a	n/a
1899.73	0.0	target	6	1899730	x	1	36.0	1	0.3339791	11
1899.897	0.5	BAD keypress	2	1899897	n/a	n/a	n/a	n/a	n/a	n/a
1900.147	0.0	keypress	4	1900147	n/a	n/a	n/a	n/a	n/a	n/a
1901.58	0.0	target	6	1901580	l	1	27.0	1	0.3559101	11
1901.78	0.5	BAD keypress	2	1901780	n/a	n/a	n/a	n/a	n/a	n/a
1902.03	0.0	keypress	4	1902030	n/a	n/a	n/a	n/a	n/a	n/a
1903.847	0.0	nontarget	5	1903847	z	0	50.0	n/a	n/a	11
1905.963	0.0	nontarget	5	1905963	f	0	24.0	n/a	n/a	11
1908.163	0.0	nontarget	5	1908163	p	0	29.0	n/a	n/a	11
1910.596	0.0	nontarget	5	1910596	i	0	43.0	n/a	n/a	11
1912.68	0.0	nontarget	5	1912680	s	0	22.0	n/a	n/a	11
1914.68	0.0	nontarget	5	1914680	ä	0	17.0	n/a	n/a	11
1916.696	0.0	nontarget	5	1916696	a	0	18.0	n/a	n/a	11
1918.946	0.0	nontarget	5	1918946	o	0	32.0	n/a	n/a	11
1921.096	0.0	nontarget	5	1921096	j	0	26.0	n/a	n/a	11
1923.413	0.0	nontarget	5	1923413	w	0	36.0	n/a	n/a	11
1925.929	0.0	nontarget	5	1925929	h	0	48.0	n/a	n/a	11
1928.129	0.0	nontarget	5	1928129	ä	0	29.0	n/a	n/a	11
1930.129	0.0	nontarget	5	1930129	ü	0	17.0	n/a	n/a	11
1932.096	0.0	nontarget	5	1932096	a	0	15.0	n/a	n/a	11
1934.445	0.0	nontarget	5	1934445	d	0	38.0	n/a	n/a	11
1936.545	0.0	nontarget	5	1936545	k	0	23.0	n/a	n/a	11
1938.895	0.0	target	6	1938895	m	1	38.0	1	0.382286	11
1939.129	0.5	BAD keypress	2	1939129	n/a	n/a	n/a	n/a	n/a	n/a
1939.379	0.0	keypress	4	1939379	n/a	n/a	n/a	n/a	n/a	n/a
1940.962	0.0	nontarget	5	1940962	ä	0	36.0	n/a	n/a	11
1943.345	0.0	nontarget	5	1943345	r	0	40.0	n/a	n/a	11
1945.778	0.0	nontarget	5	1945778	b	0	43.0	n/a	n/a	11
1948.211	0.0	target	6	1948211	u	1	43.0	1	0.425349	11
1948.495	0.5	BAD keypress	2	1948495	n/a	n/a	n/a	n/a	n/a	n/a
1948.745	0.0	keypress	4	1948745	n/a	n/a	n/a	n/a	n/a	n/a
1950.461	0.0	nontarget	5	1950461	k	0	44.0	n/a	n/a	11
1952.628	0.0	target	6	1952628	ä	1	27.0	1	0.4565222	11
1952.961	0.5	BAD keypress	2	1952961	n/a	n/a	n/a	n/a	n/a	n/a
1953.211	0.0	keypress	4	1953211	n/a	n/a	n/a	n/a	n/a	n/a
1954.911	0.0	nontarget	5	1954911	b	0	43.0	n/a	n/a	11
1956.928	0.0	nontarget	5	1956928	ö	0	18.0	n/a	n/a	11
1959.478	0.0	nontarget	5	1959478	ä	0	50.0	n/a	n/a	11
1961.428	0.0	nontarget	5	1961428	r	0	14.0	n/a	n/a	11
1963.977	0.0	nontarget	5	1963977	i	0	50.0	n/a	n/a	11
1966.094	0.0	nontarget	5	1966094	q	0	24.0	n/a	n/a	11
1968.077	0.0	nontarget	5	1968077	u	0	16.0	n/a	n/a	11
1970.361	0.0	nontarget	5	1970361	j	0	34.0	n/a	n/a	11
1972.794	0.0	nontarget	5	1972794	x	0	43.0	n/a	n/a	11
1975.144	0.0	nontarget	5	1975144	g	0	38.0	n/a	n/a	11
1977.577	0.0	nontarget	5	1977577	c	0	43.0	n/a	n/a	11
1979.993	0.0	nontarget	5	1979993	f	0	42.0	n/a	n/a	11
1981.993	0.0	nontarget	5	1981993	ä	0	17.0	n/a	n/a	11
1984.093	0.0	target	6	1984093	d	1	23.0	1	0.4611829	11
1984.427	0.5	BAD keypress	2	1984427	n/a	n/a	n/a	n/a	n/a	n/a
1984.677	0.0	keypress	4	1984677	n/a	n/a	n/a	n/a	n/a	n/a
1986.093	0.0	nontarget	5	1986093	o	0	26.0	n/a	n/a	11
1988.526	0.0	nontarget	5	1988526	l	0	43.0	n/a	n/a	11
1990.976	0.0	nontarget	5	1990976	y	0	44.0	n/a	n/a	11
1992.976	0.0	target	6	1992976	k	1	17.0	1	0.4255158	11
1993.243	0.5	BAD keypress	2	1993243	n/a	n/a	n/a	n/a	n/a	n/a
1993.493	0.0	keypress	4	1993493	n/a	n/a	n/a	n/a	n/a	n/a
1995.043	0.0	nontarget	5	1995043	c	0	34.0	n/a	n/a	11
1997.043	0.0	nontarget	5	1997043	o	0	17.0	n/a	n/a	11
1999.143	0.0	nontarget	5	1999143	p	0	23.0	n/a	n/a	11
2001.359	0.0	nontarget	5	2001359	f	0	30.0	n/a	n/a	11
2003.792	0.0	nontarget	5	2003792	y	0	43.0	n/a	n/a	11
2006.309	0.0	nontarget	5	2006309	a	0	48.0	n/a	n/a	11
2008.459	0.0	nontarget	5	2008459	b	0	26.0	n/a	n/a	11
2010.409	0.0	nontarget	5	2010409	s	0	14.0	n/a	n/a	11
2011.509	19.615999999999985	BAD_break	3	2011509	n/a	n/a	n/a	n/a	n/a	n/a
2031.625	0.0	nontarget	5	2031625	z	0	14.0	n/a	n/a	12
2033.774	0.0	nontarget	5	2033774	m	0	26.0	n/a	n/a	12
2036.308	0.0	target	6	2036308	v	1	49.0	1	0.3871749	12
2036.524	0.5	BAD keypress	2	2036524	n/a	n/a	n/a	n/a	n/a	n/a
2036.774	0.0	keypress	4	2036774	n/a	n/a	n/a	n/a	n/a	n/a
2038.524	0.0	target	6	2038524	p	1	46.0	1	0.3625152	12
2038.741	0.5	BAD keypress	2	2038741	n/a	n/a	n/a	n/a	n/a	n/a
2038.991	0.0	keypress	4	2038991	n/a	n/a	n/a	n/a	n/a	n/a
2040.524	0.0	nontarget	5	2040524	g	0	33.0	n/a	n/a	12
2042.941	0.0	target	6	2042941	g	1	42.0	1	0.4097328	12
2043.191	0.5	BAD keypress	2	2043191	n/a	n/a	n/a	n/a	n/a	n/a
2043.441	0.0	keypress	4	2043441	n/a	n/a	n/a	n/a	n/a	n/a
2045.257	0.0	nontarget	5	2045257	d	0	50.0	n/a	n/a	12
2047.474	0.0	nontarget	5	2047474	a	0	30.0	n/a	n/a	12
2049.624	0.0	nontarget	5	2049624	y	0	26.0	n/a	n/a	12
2052.057	0.0	target	6	2052057	q	1	43.0	1	0.3968319	12
2052.29	0.5	BAD keypress	2	2052290	n/a	n/a	n/a	n/a	n/a	n/a
2052.54	0.0	keypress	4	2052540	n/a	n/a	n/a	n/a	n/a	n/a
2054.007	0.0	nontarget	5	2054007	x	0	29.0	n/a	n/a	12
2056.323	0.0	nontarget	5	2056323	p	0	36.0	n/a	n/a	12
2058.607	0.0	nontarget	5	2058607	b	0	34.0	n/a	n/a	12
2060.623	0.0	nontarget	5	2060623	v	0	18.0	n/a	n/a	12
2062.607	0.0	target	6	2062607	y	1	16.0	1	0.4865746	12
2062.907	0.5	BAD keypress	2	2062907	n/a	n/a	n/a	n/a	n/a	n/a
2063.157	0.0	keypress	4	2063157	n/a	n/a	n/a	n/a	n/a	n/a
2064.673	0.0	nontarget	5	2064673	h	0	32.0	n/a	n/a	12
2067.223	0.0	target	6	2067223	d	1	50.0	1	0.3817386	12
2067.49	0.5	BAD keypress	2	2067490	n/a	n/a	n/a	n/a	n/a	n/a
2067.74	0.0	keypress	4	2067740	n/a	n/a	n/a	n/a	n/a	n/a
2068.956	0.0	nontarget	5	2068956	j	0	14.0	n/a	n/a	12
2071.023	0.0	nontarget	5	2071023	v	0	21.0	n/a	n/a	12
2073.573	0.0	nontarget	5	2073573	ß	0	50.0	n/a	n/a	12
2075.973	0.0	nontarget	5	2075973	u	0	41.0	n/a	n/a	12
2077.939	0.0	nontarget	5	2077939	i	0	15.0	n/a	n/a	12
2080.339	0.0	nontarget	5	2080339	q	0	41.0	n/a	n/a	12
2082.356	0.0	nontarget	5	2082356	f	0	18.0	n/a	n/a	12
2084.356	0.0	nontarget	5	2084356	j	0	17.0	n/a	n/a	12
2086.522	0.0	nontarget	5	2086522	p	0	27.0	n/a	n/a	12
2089.039	0.0	nontarget	5	2089039	a	0	48.0	n/a	n/a	12
2091.039	0.0	nontarget	5	2091039	h	0	17.0	n/a	n/a	12
2093.139	0.0	nontarget	5	2093139	s	0	23.0	n/a	n/a	12
2095.422	0.0	nontarget	5	2095422	u	0	34.0	n/a	n/a	12
2097.755	0.0	nontarget	5	2097755	t	0	37.0	n/a	n/a	12
2099.755	0.0	nontarget	5	2099755	k	0	17.0	n/a	n/a	12
2102.138	0.0	target	6	2102138	h	1	40.0	1	0.4402274	12
2102.422	0.5	BAD keypress	2	2102422	n/a	n/a	n/a	n/a	n/a	n/a
2102.672	0.0	keypress	4	2102672	n/a	n/a	n/a	n/a	n/a	n/a
2104.121	0.0	nontarget	5	2104121	b	0	28.0	n/a	n/a	12
2106.088	0.0	nontarget	5	2106088	w	0	15.0	n/a	n/a	12
2108.155	0.0	target	6	2108155	j	1	21.0	1	0.4234583	12
2108.421	0.5	BAD keypress	2	2108421	n/a	n/a	n/a	n/a	n/a	n/a
2108.671	0.0	keypress	4	2108671	n/a	n/a	n/a	n/a	n/a	n/a
2109.904	0.0	nontarget	5	2109904	h	0	15.0	n/a	n/a	12
2111.871	0.0	target	6	2111871	ü	1	15.0	1	0.402645	12
2112.088	0.5	BAD keypress	2	2112088	n/a	n/a	n/a	n/a	n/a	n/a
2112.338	0.0	keypress	4	2112338	n/a	n/a	n/a	n/a	n/a	n/a
2113.938	0.0	nontarget	5	2113938	n	0	37.0	n/a	n/a	12
2116.238	0.0	nontarget	5	2116238	t	0	35.0	n/a	n/a	12
2118.671	0.0	nontarget	5	2118671	h	0	43.0	n/a	n/a	12
2120.821	0.0	nontarget	5	2120821	l	0	26.0	n/a	n/a	12
2122.787	0.0	nontarget	5	2122787	y	0	15.0	n/a	n/a	12
2124.804	0.0	nontarget	5	2124804	t	0	18.0	n/a	n/a	12
2127.204	0.0	nontarget	5	2127204	r	0	41.0	n/a	n/a	12
2129.72	0.0	nontarget	5	2129720	h	0	48.0	n/a	n/a	12
2132.27	0.0	target	6	2132270	k	1	50.0	1	0.4182065	12
2132.52	0.5	BAD keypress	2	2132520	n/a	n/a	n/a	n/a	n/a	n/a
2132.77	0.0	keypress	4	2132770	n/a	n/a	n/a	n/a	n/a	n/a
2134.087	0.0	nontarget	5	2134087	b	0	20.0	n/a	n/a	12
2136.503	0.0	target	6	2136503	n	1	42.0	1	0.4567104	12
2136.837	0.5	BAD keypress	2	2136837	n/a	n/a	n/a	n/a	n/a	n/a
2137.087	0.0	keypress	4	2137087	n/a	n/a	n/a	n/a	n/a	n/a
2137.337	0.5	BAD keypress	2	2137337	n/a	n/a	n/a	n/a	n/a	n/a
2137.587	0.0	keypress	4	2137587	n/a	n/a	n/a	n/a	n/a	n/a
2138.353	0.0	nontarget	5	2138353	e	0	17.0	n/a	n/a	12
2140.72	0.0	nontarget	5	2140720	o	0	39.0	n/a	n/a	12
2143.203	0.0	target	6	2143203	r	1	46.0	1	0.3965441	12
2143.436	0.5	BAD keypress	2	2143436	n/a	n/a	n/a	n/a	n/a	n/a
2143.686	0.0	keypress	4	2143686	n/a	n/a	n/a	n/a	n/a	n/a
2145.336	0.0	nontarget	5	2145336	r	0	40.0	n/a	n/a	12
2147.453	0.0	nontarget	5	2147453	w	0	24.0	n/a	n/a	12
2149.769	0.0	nontarget	5	2149769	i	0	36.0	n/a	n/a	12
2152.203	0.0	nontarget	5	2152203	x	0	43.0	n/a	n/a	12
2154.286	0.0	nontarget	5	2154286	ä	0	22.0	n/a	n/a	12
2156.686	0.0	nontarget	5	2156686	k	0	41.0	n/a	n/a	12
2159.219	0.0	nontarget	5	2159219	r	0	49.0	n/a	n/a	12
2161.386	0.0	nontarget	5	2161386	ü	0	27.0	n/a	n/a	12
2163.402	0.0	nontarget	5	2163402	n	0	18.0	n/a	n/a	12
2165.419	0.0	nontarget	5	2165419	l	0	18.0	n/a	n/a	12
2167.819	0.0	nontarget	5	2167819	v	0	41.0	n/a	n/a	12
2170.202	0.0	nontarget	5	2170202	j	0	40.0	n/a	n/a	12
2172.302	0.0	nontarget	5	2172302	h	0	23.0	n/a	n/a	12
2174.768	0.0	target	6	2174768	t	1	45.0	1	0.4450041	12
2175.035	0.5	BAD keypress	2	2175035	n/a	n/a	n/a	n/a	n/a	n/a
2175.285	0.0	keypress	4	2175285	n/a	n/a	n/a	n/a	n/a	n/a
2176.385	17.44900000000007	BAD_break	3	2176385	n/a	n/a	n/a	n/a	n/a	n/a
2194.334	0.0	nontarget	5	2194334	u	0	21.0	n/a	n/a	13
2196.667	0.0	target	6	2196667	e	1	37.0	1	0.400606	13
2196.968	0.5	BAD keypress	2	2196968	n/a	n/a	n/a	n/a	n/a	n/a
2197.218	0.0	keypress	4	2197218	n/a	n/a	n/a	n/a	n/a	n/a
2198.917	0.0	nontarget	5	2198917	r	0	43.0	n/a	n/a	13
2201.117	0.0	nontarget	5	2201117	ü	0	29.0	n/a	n/a	13
2203.35	0.0	nontarget	5	2203350	e	0	31.0	n/a	n/a	13
2205.8	0.0	nontarget	5	2205800	n	0	44.0	n/a	n/a	13
2207.917	0.0	target	6	2207917	w	1	24.0	1	0.4463303	13
2208.25	0.5	BAD keypress	2	2208250	n/a	n/a	n/a	n/a	n/a	n/a
2208.5	0.0	keypress	4	2208500	n/a	n/a	n/a	n/a	n/a	n/a
2209.717	0.0	target	6	2209717	t	1	14.0	1	0.3902353	13
2209.984	0.5	BAD keypress	2	2209984	n/a	n/a	n/a	n/a	n/a	n/a
2210.234	0.0	keypress	4	2210234	n/a	n/a	n/a	n/a	n/a	n/a
2211.733	0.0	nontarget	5	2211733	d	0	31.0	n/a	n/a	13
2214.033	0.0	nontarget	5	2214033	q	0	35.0	n/a	n/a	13
2216.567	0.0	nontarget	5	2216567	ü	0	49.0	n/a	n/a	13
2218.533	0.0	target	6	2218533	m	1	15.0	1	0.4373474	13
2218.817	0.5	BAD keypress	2	2218817	n/a	n/a	n/a	n/a	n/a	n/a
2219.067	0.0	keypress	4	2219067	n/a	n/a	n/a	n/a	n/a	n/a
2220.883	0.0	target	6	2220883	n	1	50.0	1	0.4713761	13
2221.2	0.5	BAD keypress	2	2221200	n/a	n/a	n/a	n/a	n/a	n/a
2221.45	0.0	keypress	4	2221450	n/a	n/a	n/a	n/a	n/a	n/a
2222.783	0.0	nontarget	5	2222783	w	0	21.0	n/a	n/a	13
2224.966	0.0	nontarget	5	2224966	p	0	28.0	n/a	n/a	13
2227.483	0.0	nontarget	5	2227483	v	0	48.0	n/a	n/a	13
2229.633	0.0	target	6	2229633	m	1	26.0	1	0.425094	13
2229.916	0.5	BAD keypress	2	2229916	n/a	n/a	n/a	n/a	n/a	n/a
2230.166	0.0	keypress	4	2230166	n/a	n/a	n/a	n/a	n/a	n/a
2231.599	0.0	nontarget	5	2231599	x	0	27.0	n/a	n/a	13
2234.149	0.0	nontarget	5	2234149	ü	0	50.0	n/a	n/a	13
2236.666	0.0	nontarget	5	2236666	j	0	48.0	n/a	n/a	13
2238.899	0.0	nontarget	5	2238899	l	0	31.0	n/a	n/a	13
2240.982	0.0	nontarget	5	2240982	y	0	22.0	n/a	n/a	13
2243.499	0.0	nontarget	5	2243499	w	0	48.0	n/a	n/a	13
2245.482	0.0	nontarget	5	2245482	c	0	16.0	n/a	n/a	13
2247.632	0.0	nontarget	5	2247632	m	0	26.0	n/a	n/a	13
2249.982	0.0	nontarget	5	2249982	ö	0	38.0	n/a	n/a	13
2252.215	0.0	nontarget	5	2252215	z	0	31.0	n/a	n/a	13
2254.432	0.0	target	6	2254432	j	1	30.0	1	0.5044422	13
2254.782	0.5	BAD keypress	2	2254782	n/a	n/a	n/a	n/a	n/a	n/a
2255.032	0.0	keypress	4	2255032	n/a	n/a	n/a	n/a	n/a	n/a
2256.765	0.0	nontarget	5	2256765	t	0	45.0	n/a	n/a	13
2259.231	0.0	nontarget	5	2259231	c	0	45.0	n/a	n/a	13
2261.198	0.0	nontarget	5	2261198	x	0	15.0	n/a	n/a	13
2263.481	0.0	nontarget	5	2263481	b	0	34.0	n/a	n/a	13
2265.681	0.0	target	6	2265681	x	1	29.0	1	0.502243	13
2266.014	0.5	BAD keypress	2	2266014	n/a	n/a	n/a	n/a	n/a	n/a
2266.264	0.0	keypress	4	2266264	n/a	n/a	n/a	n/a	n/a	n/a
2268.081	0.0	nontarget	5	2268081	u	0	50.0	n/a	n/a	13
2270.448	0.0	nontarget	5	2270448	q	0	39.0	n/a	n/a	13
2272.547	0.0	nontarget	5	2272547	c	0	23.0	n/a	n/a	13
2274.781	0.0	nontarget	5	2274781	ü	0	31.0	n/a	n/a	13
2276.747	0.0	nontarget	5	2276747	w	0	15.0	n/a	n/a	13
2279.064	0.0	target	6	2279064	ä	1	36.0	1	0.4305318	13
2279.331	0.5	BAD keypress	2	2279331	n/a	n/a	n/a	n/a	n/a	n/a
2279.581	0.0	keypress	4	2279581	n/a	n/a	n/a	n/a	n/a	n/a
2281.197	0.0	nontarget	5	2281197	o	0	38.0	n/a	n/a	13
2283.747	0.0	nontarget	5	2283747	i	0	50.0	n/a	n/a	13
2286.164	0.0	nontarget	5	2286164	ä	0	42.0	n/a	n/a	13
2288.147	0.0	nontarget	5	2288147	t	0	16.0	n/a	n/a	13
2290.297	0.0	nontarget	5	2290297	d	0	26.0	n/a	n/a	13
2292.497	0.0	nontarget	5	2292497	w	0	29.0	n/a	n/a	13
2294.863	0.0	nontarget	5	2294863	a	0	39.0	n/a	n/a	13
2297.063	0.0	nontarget	5	2297063	f	0	29.0	n/a	n/a	13
2299.113	0.0	nontarget	5	2299113	ü	0	20.0	n/a	n/a	13
2301.546	0.0	nontarget	5	2301546	ö	0	43.0	n/a	n/a	13
2303.813	0.0	target	6	2303813	r	1	33.0	1	0.4959597	13
2304.146	0.5	BAD keypress	2	2304146	n/a	n/a	n/a	n/a	n/a	n/a
2304.396	0.0	keypress	4	2304396	n/a	n/a	n/a	n/a	n/a	n/a
2306.179	0.0	nontarget	5	2306179	h	0	48.0	n/a	n/a	13
2308.363	0.0	nontarget	5	2308363	l	0	28.0	n/a	n/a	13
2310.812	0.0	nontarget	5	2310812	d	0	44.0	n/a	n/a	13
2313.296	0.0	target	6	2313296	f	1	46.0	1	0.4363094	13
2313.546	0.5	BAD keypress	2	2313546	n/a	n/a	n/a	n/a	n/a	n/a
2313.796	0.0	keypress	4	2313796	n/a	n/a	n/a	n/a	n/a	n/a
2315.446	0.0	nontarget	5	2315446	v	0	40.0	n/a	n/a	13
2317.929	0.0	nontarget	5	2317929	b	0	46.0	n/a	n/a	13
2320.262	0.0	nontarget	5	2320262	m	0	37.0	n/a	n/a	13
2322.312	0.0	nontarget	5	2322312	l	0	20.0	n/a	n/a	13
2324.445	0.0	nontarget	5	2324445	y	0	25.0	n/a	n/a	13
2326.612	0.0	target	6	2326612	v	1	27.0	1	0.4312944	13
2326.879	0.5	BAD keypress	2	2326879	n/a	n/a	n/a	n/a	n/a	n/a
2327.129	0.0	keypress	4	2327129	n/a	n/a	n/a	n/a	n/a	n/a
2328.662	0.0	nontarget	5	2328662	ü	0	33.0	n/a	n/a	13
2330.778	0.0	nontarget	5	2330778	u	0	24.0	n/a	n/a	13
2333.278	0.0	nontarget	5	2333278	k	0	47.0	n/a	n/a	13
2335.711	0.0	nontarget	5	2335711	s	0	43.0	n/a	n/a	13
2338.045	0.0	nontarget	5	2338045	h	0	37.0	n/a	n/a	13
2340.045	0.0	nontarget	5	2340045	p	0	17.0	n/a	n/a	13
2341.145	17.914999999999964	BAD_break	3	2341145	n/a	n/a	n/a	n/a	n/a	n/a
2359.56	0.0	nontarget	5	2359560	f	0	23.0	n/a	n/a	14
2361.944	0.0	nontarget	5	2361944	e	0	40.0	n/a	n/a	14
2364.377	0.0	nontarget	5	2364377	m	0	43.0	n/a	n/a	14
2366.91	0.0	nontarget	5	2366910	t	0	49.0	n/a	n/a	14
2368.977	0.0	target	6	2368977	t	1	21.0	1	0.4317275	14
2369.277	0.5	BAD keypress	2	2369277	n/a	n/a	n/a	n/a	n/a	n/a
2369.527	0.0	keypress	4	2369527	n/a	n/a	n/a	n/a	n/a	n/a
2371.327	0.0	nontarget	5	2371327	o	0	49.0	n/a	n/a	14
2373.543	0.0	nontarget	5	2373543	z	0	30.0	n/a	n/a	14
2376.043	0.0	nontarget	5	2376043	t	0	47.0	n/a	n/a	14
2378.376	0.0	nontarget	5	2378376	i	0	37.0	n/a	n/a	14
2380.743	0.0	nontarget	5	2380743	ä	0	39.0	n/a	n/a	14
2382.926	0.0	nontarget	5	2382926	w	0	28.0	n/a	n/a	14
2385.043	0.0	nontarget	5	2385043	j	0	24.0	n/a	n/a	14
2387.509	0.0	target	6	2387509	o	1	45.0	1	0.4258356	14
2387.793	0.5	BAD keypress	2	2387793	n/a	n/a	n/a	n/a	n/a	n/a
2388.043	0.0	keypress	4	2388043	n/a	n/a	n/a	n/a	n/a	n/a
2389.342	0.0	nontarget	5	2389342	l	0	19.0	n/a	n/a	14
2391.459	0.0	target	6	2391459	n	1	24.0	1	0.4438168	14
2391.726	0.5	BAD keypress	2	2391726	n/a	n/a	n/a	n/a	n/a	n/a
2391.976	0.0	keypress	4	2391976	n/a	n/a	n/a	n/a	n/a	n/a
2393.292	0.0	target	6	2393292	i	1	20.0	1	0.4183443	14
2393.542	0.5	BAD keypress	2	2393542	n/a	n/a	n/a	n/a	n/a	n/a
2393.792	0.0	keypress	4	2393792	n/a	n/a	n/a	n/a	n/a	n/a
2395.092	0.0	nontarget	5	2395092	y	0	18.0	n/a	n/a	14
2397.309	0.0	nontarget	5	2397309	e	0	30.0	n/a	n/a	14
2399.842	0.0	nontarget	5	2399842	g	0	49.0	n/a	n/a	14
2402.342	0.0	nontarget	5	2402342	l	0	47.0	n/a	n/a	14
2404.475	0.0	nontarget	5	2404475	v	0	25.0	n/a	n/a	14
2406.958	0.0	target	6	2406958	i	1	46.0	1	0.447396	14
2407.275	0.5	BAD keypress	2	2407275	n/a	n/a	n/a	n/a	n/a	n/a
2407.525	0.0	keypress	4	2407525	n/a	n/a	n/a	n/a	n/a	n/a
2409.342	0.0	nontarget	5	2409342	f	0	50.0	n/a	n/a	14
2411.408	0.0	nontarget	5	2411408	c	0	21.0	n/a	n/a	14
2413.441	0.0	nontarget	5	2413441	z	0	19.0	n/a	n/a	14
2415.425	0.0	nontarget	5	2415425	p	0	16.0	n/a	n/a	14
2417.825	0.0	target	6	2417825	d	1	41.0	1	0.4765286	14
2418.158	0.5	BAD keypress	2	2418158	n/a	n/a	n/a	n/a	n/a	n/a
2418.408	0.0	keypress	4	2418408	n/a	n/a	n/a	n/a	n/a	n/a
2419.674	0.0	target	6	2419674	u	1	17.0	1	0.4023846	14
2419.924	0.5	BAD keypress	2	2419924	n/a	n/a	n/a	n/a	n/a	n/a
2420.174	0.0	keypress	4	2420174	n/a	n/a	n/a	n/a	n/a	n/a
2421.974	0.0	target	6	2421974	p	1	49.0	1	0.3424148	14
2422.191	0.5	BAD keypress	2	2422191	n/a	n/a	n/a	n/a	n/a	n/a
2422.441	0.0	keypress	4	2422441	n/a	n/a	n/a	n/a	n/a	n/a
2423.808	0.0	nontarget	5	2423808	e	0	23.0	n/a	n/a	14
2426.141	0.0	nontarget	5	2426141	k	0	37.0	n/a	n/a	14
2428.174	0.0	target	6	2428174	o	1	19.0	1	0.4301453	14
2428.457	0.5	BAD keypress	2	2428457	n/a	n/a	n/a	n/a	n/a	n/a
2428.707	0.0	keypress	4	2428707	n/a	n/a	n/a	n/a	n/a	n/a
2430.324	0.0	nontarget	5	2430324	i	0	38.0	n/a	n/a	14
2432.774	0.0	nontarget	5	2432774	w	0	44.0	n/a	n/a	14
2434.89	0.0	nontarget	5	2434890	u	0	24.0	n/a	n/a	14
2437.074	0.0	nontarget	5	2437074	z	0	28.0	n/a	n/a	14
2439.107	0.0	nontarget	5	2439107	ö	0	19.0	n/a	n/a	14
2441.607	0.0	nontarget	5	2441607	d	0	47.0	n/a	n/a	14
2443.773	0.0	nontarget	5	2443773	v	0	27.0	n/a	n/a	14
2446.223	0.0	nontarget	5	2446223	t	0	44.0	n/a	n/a	14
2448.723	0.0	nontarget	5	2448723	s	0	47.0	n/a	n/a	14
2450.706	0.0	nontarget	5	2450706	j	0	16.0	n/a	n/a	14
2453.14	0.0	nontarget	5	2453140	n	0	43.0	n/a	n/a	14
2455.19	0.0	target	6	2455190	s	1	20.0	1	0.4528196	14
2455.506	0.5	BAD keypress	2	2455506	n/a	n/a	n/a	n/a	n/a	n/a
2455.756	0.0	keypress	4	2455756	n/a	n/a	n/a	n/a	n/a	n/a
2457.173	0.0	nontarget	5	2457173	q	0	26.0	n/a	n/a	14
2459.173	0.0	target	6	2459173	m	1	17.0	1	0.4374902	14
2459.456	0.5	BAD keypress	2	2459456	n/a	n/a	n/a	n/a	n/a	n/a
2459.706	0.0	keypress	4	2459706	n/a	n/a	n/a	n/a	n/a	n/a
2461.389	0.0	nontarget	5	2461389	c	0	42.0	n/a	n/a	14
2463.439	0.0	nontarget	5	2463439	l	0	20.0	n/a	n/a	14
2465.556	0.0	nontarget	5	2465556	a	0	24.0	n/a	n/a	14
2468.022	0.0	nontarget	5	2468022	k	0	45.0	n/a	n/a	14
2470.456	0.0	target	6	2470456	g	1	43.0	1	0.4018513	14
2470.739	0.5	BAD keypress	2	2470739	n/a	n/a	n/a	n/a	n/a	n/a
2470.989	0.0	keypress	4	2470989	n/a	n/a	n/a	n/a	n/a	n/a
2472.739	0.0	nontarget	5	2472739	ö	0	46.0	n/a	n/a	14
2475.272	0.0	nontarget	5	2475272	a	0	49.0	n/a	n/a	14
2477.322	0.0	nontarget	5	2477322	q	0	20.0	n/a	n/a	14
2479.305	0.0	nontarget	5	2479305	ß	0	16.0	n/a	n/a	14
2481.388	0.0	nontarget	5	2481388	u	0	22.0	n/a	n/a	14
2483.705	0.0	nontarget	5	2483705	a	0	36.0	n/a	n/a	14
2485.788	0.0	nontarget	5	2485788	ü	0	22.0	n/a	n/a	14
2488.221	0.0	target	6	2488221	l	1	43.0	1	0.5227569	14
2488.605	0.5	BAD keypress	2	2488605	n/a	n/a	n/a	n/a	n/a	n/a
2488.855	0.0	keypress	4	2488855	n/a	n/a	n/a	n/a	n/a	n/a
2490.455	0.0	nontarget	5	2490455	u	0	37.0	n/a	n/a	14
2491.555	11.364000000000033	BAD_break	3	2491555	n/a	n/a	n/a	n/a	n/a	n/a
