onset	duration	trial_type	value	sample	stimulus	target	blank_jitter_frames	accuracy	response_time	block
0.0	244.974	BAD_break	3	0	n/a	n/a	n/a	n/a	n/a	n/a
245.474	0.0	nontarget	5	245474	j	0	37.0	n/a	n/a	1
247.907	0.0	nontarget	5	247907	n	0	43.0	n/a	n/a	1
250.074	0.0	nontarget	5	250074	u	0	27.0	n/a	n/a	1
252.207	0.0	target	6	252207	ä	1	25.0	1	0.439589	1
252.507	0.5	BAD keypress	2	252507	n/a	n/a	n/a	n/a	n/a	n/a
252.757	0.0	keypress	4	252757	n/a	n/a	n/a	n/a	n/a	n/a
254.24	0.0	nontarget	5	254240	z	0	29.0	n/a	n/a	1
256.473	0.0	nontarget	5	256473	j	0	31.0	n/a	n/a	1
258.89	0.0	nontarget	5	258890	ü	0	42.0	n/a	n/a	1
261.323	0.0	nontarget	5	261323	i	0	43.0	n/a	n/a	1
263.356	0.0	nontarget	5	263356	q	0	19.0	n/a	n/a	1
265.673	0.0	nontarget	5	265673	z	0	36.0	n/a	n/a	1
268.223	0.0	target	6	268223	j	1	50.0	1	0.4226308	1
268.523	0.5	BAD keypress	2	268523	n/a	n/a	n/a	n/a	n/a	n/a
268.773	0.0	keypress	4	268773	n/a	n/a	n/a	n/a	n/a	n/a
270.373	0.0	nontarget	5	270373	b	0	36.0	n/a	n/a	1
272.839	0.0	nontarget	5	272839	m	0	45.0	n/a	n/a	1
275.023	0.0	target	6	275023	o	1	28.0	1	0.4704109	1
275.339	0.5	BAD keypress	2	275339	n/a	n/a	n/a	n/a	n/a	n/a
275.589	0.0	keypress	4	275589	n/a	n/a	n/a	n/a	n/a	n/a
277.189	0.0	nontarget	5	277189	a	0	36.0	n/a	n/a	1
279.239	0.0	nontarget	5	279239	n	0	20.0	n/a	n/a	1
281.539	0.0	nontarget	5	281539	s	0	35.0	n/a	n/a	1
283.689	0.0	nontarget	5	283689	z	0	26.0	n/a	n/a	1
285.789	0.0	nontarget	5	285789	j	0	23.0	n/a	n/a	1
288.222	0.0	nontarget	5	288222	g	0	43.0	n/a	n/a	1
290.655	0.0	nontarget	5	290655	t	0	43.0	n/a	n/a	1
293.122	0.0	nontarget	5	293122	x	0	45.0	n/a	n/a	1
295.572	0.0	target	6	295572	e	1	44.0	1	0.4160941	1
295.838	0.5	BAD keypress	2	295838	n/a	n/a	n/a	n/a	n/a	n/a
296.088	0.0	keypress	4	296088	n/a	n/a	n/a	n/a	n/a	n/a
297.422	0.0	nontarget	5	297422	ä	0	20.0	n/a	n/a	1
299.805	0.0	nontarget	5	299805	v	0	40.0	n/a	n/a	1
302.305	0.0	nontarget	5	302305	q	0	47.0	n/a	n/a	1
304.738	0.0	nontarget	5	304738	ö	0	43.0	n/a	n/a	1
307.288	0.0	nontarget	5	307288	o	0	50.0	n/a	n/a	1
309.388	0.0	nontarget	5	309388	b	0	23.0	n/a	n/a	1
311.838	0.0	nontarget	5	311838	e	0	44.0	n/a	n/a	1
314.138	0.0	nontarget	5	314138	f	0	35.0	n/a	n/a	1
316.321	0.0	nontarget	5	316321	n	0	28.0	n/a	n/a	1
318.387	0.0	nontarget	5	318387	u	0	21.0	n/a	n/a	1
320.587	0.0	nontarget	5	320587	v	0	29.0	n/a	n/a	1
323.037	0.0	nontarget	5	323037	h	0	44.0	n/a	n/a	1
325.387	0.0	nontarget	5	325387	l	0	38.0	n/a	n/a	1
327.554	0.0	nontarget	5	327554	o	0	27.0	n/a	n/a	1
329.82	0.0	nontarget	5	329820	a	0	33.0	n/a	n/a	1
332.02	0.0	nontarget	5	332020	w	0	29.0	n/a	n/a	1
334.153	0.0	nontarget	5	334153	y	0	25.0	n/a	n/a	1
336.52	0.0	nontarget	5	336520	n	0	39.0	n/a	n/a	1
338.57	0.0	target	6	338570	u	1	20.0	1	0.4551053	1
338.92	0.5	BAD keypress	2	338920	n/a	n/a	n/a	n/a	n/a	n/a
339.17	0.0	keypress	4	339170	n/a	n/a	n/a	n/a	n/a	n/a
340.636	0.0	target	6	340636	t	1	29.0	1	0.4523191	1
340.986	0.5	BAD keypress	2	340986	n/a	n/a	n/a	n/a	n/a	n/a
341.236	0.0	keypress	4	341236	n/a	n/a	n/a	n/a	n/a	n/a
342.686	0.0	nontarget	5	342686	a	0	28.0	n/a	n/a	1
344.72	0.0	nontarget	5	344720	k	0	19.0	n/a	n/a	1
346.969	0.0	nontarget	5	346969	y	0	32.0	n/a	n/a	1
349.153	0.0	nontarget	5	349153	m	0	28.0	n/a	n/a	1
351.369	0.0	nontarget	5	351369	w	0	30.0	n/a	n/a	1
353.902	0.0	nontarget	5	353902	b	0	49.0	n/a	n/a	1
356.102	0.0	nontarget	5	356102	k	0	29.0	n/a	n/a	1
358.419	0.0	nontarget	5	358419	c	0	36.0	n/a	n/a	1
360.819	0.0	nontarget	5	360819	h	0	41.0	n/a	n/a	1
362.919	0.0	nontarget	5	362919	v	0	23.0	n/a	n/a	1
365.102	0.0	target	6	365102	d	1	28.0	1	0.4331256	1
365.419	0.5	BAD keypress	2	365419	n/a	n/a	n/a	n/a	n/a	n/a
365.669	0.0	keypress	4	365669	n/a	n/a	n/a	n/a	n/a	n/a
367.269	0.0	target	6	367269	z	1	36.0	1	0.4904156	1
367.669	0.5	BAD keypress	2	367669	n/a	n/a	n/a	n/a	n/a	n/a
367.919	0.0	keypress	4	367919	n/a	n/a	n/a	n/a	n/a	n/a
369.468	0.0	nontarget	5	369468	a	0	34.0	n/a	n/a	1
371.418	0.0	nontarget	5	371418	o	0	14.0	n/a	n/a	1
373.618	0.0	target	6	373618	k	1	29.0	1	0.3962622	1
373.935	0.5	BAD keypress	2	373935	n/a	n/a	n/a	n/a	n/a	n/a
374.185	0.0	keypress	4	374185	n/a	n/a	n/a	n/a	n/a	n/a
375.601	0.0	nontarget	5	375601	m	0	26.0	n/a	n/a	1
377.768	0.0	nontarget	5	377768	k	0	27.0	n/a	n/a	1
379.818	0.0	nontarget	5	379818	u	0	20.0	n/a	n/a	1
382.285	0.0	nontarget	5	382285	c	0	45.0	n/a	n/a	1
384.751	0.0	nontarget	5	384751	m	0	45.0	n/a	n/a	1
387.168	0.0	target	6	387168	m	1	42.0	1	0.3820403	1
387.451	0.5	BAD keypress	2	387451	n/a	n/a	n/a	n/a	n/a	n/a
387.701	0.0	keypress	4	387701	n/a	n/a	n/a	n/a	n/a	n/a
388.968	0.0	nontarget	5	388968	v	0	17.0	n/a	n/a	1
391.284	0.0	target	6	391284	ü	1	36.0	1	0.4412399	1
391.634	0.5	BAD keypress	2	391634	n/a	n/a	n/a	n/a	n/a	n/a
391.884	0.0	keypress	4	391884	n/a	n/a	n/a	n/a	n/a	n/a
392.984	21.16599999999994	BAD_break	3	392984	n/a	n/a	n/a	n/a	n/a	n/a
414.65	0.0	nontarget	5	414650	e	0	45.0	n/a	n/a	2
417.033	0.0	nontarget	5	417033	ä	0	40.0	n/a	n/a	2
418.983	0.0	nontarget	5	418983	o	0	14.0	n/a	n/a	2
420.933	0.0	nontarget	5	420933	y	0	14.0	n/a	n/a	2
423.399	0.0	nontarget	5	423399	d	0	45.0	n/a	n/a	2
425.466	0.0	target	6	425466	w	1	21.0	1	0.4010725	2
425.733	0.5	BAD keypress	2	425733	n/a	n/a	n/a	n/a	n/a	n/a
425.983	0.0	keypress	4	425983	n/a	n/a	n/a	n/a	n/a	n/a
427.683	0.0	nontarget	5	427683	s	0	43.0	n/a	n/a	2
430.132	0.0	nontarget	5	430132	y	0	44.0	n/a	n/a	2
432.132	0.0	nontarget	5	432132	h	0	17.0	n/a	n/a	2
434.199	0.0	nontarget	5	434199	g	0	21.0	n/a	n/a	2
436.465	0.0	nontarget	5	436465	j	0	33.0	n/a	n/a	2
438.415	0.0	target	6	438415	i	1	14.0	1	0.506872	2
438.815	0.5	BAD keypress	2	438815	n/a	n/a	n/a	n/a	n/a	n/a
439.065	0.0	keypress	4	439065	n/a	n/a	n/a	n/a	n/a	n/a
440.465	0.0	nontarget	5	440465	w	0	25.0	n/a	n/a	2
442.849	0.0	nontarget	5	442849	l	0	40.0	n/a	n/a	2
444.998	0.0	nontarget	5	444998	ö	0	26.0	n/a	n/a	2
447.398	0.0	nontarget	5	447398	p	0	41.0	n/a	n/a	2
449.548	0.0	target	6	449548	o	1	26.0	1	0.36527	2
449.765	0.5	BAD keypress	2	449765	n/a	n/a	n/a	n/a	n/a	n/a
450.015	0.0	keypress	4	450015	n/a	n/a	n/a	n/a	n/a	n/a
451.831	0.0	nontarget	5	451831	v	0	50.0	n/a	n/a	2
454.248	0.0	nontarget	5	454248	l	0	42.0	n/a	n/a	2
456.248	0.0	nontarget	5	456248	n	0	17.0	n/a	n/a	2
458.264	0.0	nontarget	5	458264	ü	0	18.0	n/a	n/a	2
460.514	0.0	target	6	460514	k	1	32.0	1	0.3423306	2
460.748	0.5	BAD keypress	2	460748	n/a	n/a	n/a	n/a	n/a	n/a
460.998	0.0	keypress	4	460998	n/a	n/a	n/a	n/a	n/a	n/a
462.398	0.0	nontarget	5	462398	t	0	21.0	n/a	n/a	2
464.614	0.0	nontarget	5	464614	h	0	30.0	n/a	n/a	2
466.614	0.0	nontarget	5	466614	x	0	17.0	n/a	n/a	2
468.947	0.0	nontarget	5	468947	l	0	37.0	n/a	n/a	2
471.264	0.0	nontarget	5	471264	e	0	36.0	n/a	n/a	2
473.497	0.0	target	6	473497	o	1	31.0	1	0.414704	2
473.781	0.5	BAD keypress	2	473781	n/a	n/a	n/a	n/a	n/a	n/a
474.031	0.0	keypress	4	474031	n/a	n/a	n/a	n/a	n/a	n/a
475.814	0.0	nontarget	5	475814	w	0	48.0	n/a	n/a	2
477.997	0.0	target	6	477997	f	1	28.0	1	0.4265811	2
478.297	0.5	BAD keypress	2	478297	n/a	n/a	n/a	n/a	n/a	n/a
478.547	0.0	keypress	4	478547	n/a	n/a	n/a	n/a	n/a	n/a
480.164	0.0	target	6	480164	r	1	38.0	1	0.3718729	2
480.397	0.5	BAD keypress	2	480397	n/a	n/a	n/a	n/a	n/a	n/a
480.647	0.0	keypress	4	480647	n/a	n/a	n/a	n/a	n/a	n/a
481.88	0.0	nontarget	5	481880	u	0	15.0	n/a	n/a	2
484.147	0.0	nontarget	5	484147	f	0	33.0	n/a	n/a	2
486.397	0.0	nontarget	5	486397	b	0	32.0	n/a	n/a	2
488.43	0.0	nontarget	5	488430	l	0	19.0	n/a	n/a	2
490.88	0.0	nontarget	5	490880	ä	0	44.0	n/a	n/a	2
492.93	0.0	target	6	492930	t	1	20.0	1	0.4208806	2
493.213	0.5	BAD keypress	2	493213	n/a	n/a	n/a	n/a	n/a	n/a
493.463	0.0	keypress	4	493463	n/a	n/a	n/a	n/a	n/a	n/a
495.096	0.0	nontarget	5	495096	u	0	39.0	n/a	n/a	2
497.163	0.0	nontarget	5	497163	a	0	21.0	n/a	n/a	2
499.246	0.0	nontarget	5	499246	ä	0	22.0	n/a	n/a	2
501.413	0.0	target	6	501413	e	1	27.0	1	0.4014344	2
501.696	0.5	BAD keypress	2	501696	n/a	n/a	n/a	n/a	n/a	n/a
501.946	0.0	keypress	4	501946	n/a	n/a	n/a	n/a	n/a	n/a
503.762	0.0	nontarget	5	503762	i	0	50.0	n/a	n/a	2
506.112	0.0	nontarget	5	506112	ß	0	38.0	n/a	n/a	2
508.179	0.0	nontarget	5	508179	v	0	21.0	n/a	n/a	2
510.179	0.0	nontarget	5	510179	m	0	17.0	n/a	n/a	2
512.145	0.0	target	6	512145	y	1	15.0	1	0.3878705	2
512.396	0.5	BAD keypress	2	512396	n/a	n/a	n/a	n/a	n/a	n/a
512.646	0.0	keypress	4	512646	n/a	n/a	n/a	n/a	n/a	n/a
513.895	0.0	target	6	513895	i	1	16.0	1	0.5097564	2
514.279	0.5	BAD keypress	2	514279	n/a	n/a	n/a	n/a	n/a	n/a
514.529	0.0	keypress	4	514529	n/a	n/a	n/a	n/a	n/a	n/a
516.295	0.0	nontarget	5	516295	ü	0	47.0	n/a	n/a	2
518.512	0.0	nontarget	5	518512	p	0	30.0	n/a	n/a	2
520.912	0.0	nontarget	5	520912	h	0	41.0	n/a	n/a	2
523.312	0.0	target	6	523312	j	1	41.0	1	0.4529418	2
523.645	0.5	BAD keypress	2	523645	n/a	n/a	n/a	n/a	n/a	n/a
523.895	0.0	keypress	4	523895	n/a	n/a	n/a	n/a	n/a	n/a
525.528	0.0	nontarget	5	525528	s	0	39.0	n/a	n/a	2
528.045	0.0	nontarget	5	528045	v	0	48.0	n/a	n/a	2
530.478	0.0	target	6	530478	v	1	43.0	1	0.3740494	2
530.745	0.5	BAD keypress	2	530745	n/a	n/a	n/a	n/a	n/a	n/a
530.995	0.0	keypress	4	530995	n/a	n/a	n/a	n/a	n/a	n/a
532.511	0.0	nontarget	5	532511	ü	0	32.0	n/a	n/a	2
534.961	0.0	nontarget	5	534961	k	0	44.0	n/a	n/a	2
536.944	0.0	nontarget	5	536944	j	0	16.0	n/a	n/a	2
539.444	0.0	nontarget	5	539444	f	0	47.0	n/a	n/a	2
541.877	0.0	nontarget	5	541877	ö	0	43.0	n/a	n/a	2
544.394	0.0	nontarget	5	544394	v	0	48.0	n/a	n/a	2
546.861	0.0	nontarget	5	546861	q	0	45.0	n/a	n/a	2
548.844	0.0	nontarget	5	548844	r	0	16.0	n/a	n/a	2
551.294	0.0	nontarget	5	551294	h	0	44.0	n/a	n/a	2
553.777	0.0	nontarget	5	553777	b	0	46.0	n/a	n/a	2
556.127	0.0	nontarget	5	556127	m	0	38.0	n/a	n/a	2
558.66	0.0	nontarget	5	558660	c	0	49.0	n/a	n/a	2
559.76	26.015999999999963	BAD_break	3	559760	n/a	n/a	n/a	n/a	n/a	n/a
586.276	0.0	nontarget	5	586276	ß	0	18.0	n/a	n/a	3
588.742	0.0	nontarget	5	588742	q	0	45.0	n/a	n/a	3
590.909	0.0	nontarget	5	590909	t	0	27.0	n/a	n/a	3
593.009	0.0	nontarget	5	593009	n	0	23.0	n/a	n/a	3
595.092	0.0	nontarget	5	595092	g	0	22.0	n/a	n/a	3
597.158	0.0	nontarget	5	597158	z	0	21.0	n/a	n/a	3
599.492	0.0	nontarget	5	599492	ü	0	37.0	n/a	n/a	3
602.008	0.0	target	6	602008	a	1	48.0	1	0.3751053	3
602.258	0.5	BAD keypress	2	602258	n/a	n/a	n/a	n/a	n/a	n/a
602.508	0.0	keypress	4	602508	n/a	n/a	n/a	n/a	n/a	n/a
604.208	0.0	nontarget	5	604208	s	0	43.0	n/a	n/a	3
606.658	0.0	target	6	606658	x	1	44.0	1	0.380996	3
606.925	0.5	BAD keypress	2	606925	n/a	n/a	n/a	n/a	n/a	n/a
607.175	0.0	keypress	4	607175	n/a	n/a	n/a	n/a	n/a	n/a
608.541	0.0	nontarget	5	608541	ö	0	23.0	n/a	n/a	3
610.874	0.0	nontarget	5	610874	b	0	37.0	n/a	n/a	3
613.174	0.0	nontarget	5	613174	v	0	35.0	n/a	n/a	3
615.224	0.0	nontarget	5	615224	i	0	20.0	n/a	n/a	3
617.291	0.0	nontarget	5	617291	r	0	21.0	n/a	n/a	3
619.407	0.0	nontarget	5	619407	n	0	24.0	n/a	n/a	3
621.707	0.0	nontarget	5	621707	e	0	35.0	n/a	n/a	3
624.024	0.0	target	6	624024	z	1	36.0	1	0.3898716	3
624.324	0.5	BAD keypress	2	624324	n/a	n/a	n/a	n/a	n/a	n/a
624.574	0.0	keypress	4	624574	n/a	n/a	n/a	n/a	n/a	n/a
626.124	0.0	target	6	626124	m	1	34.0	1	0.4499118	3
626.44	0.5	BAD keypress	2	626440	n/a	n/a	n/a	n/a	n/a	n/a
626.69	0.0	keypress	4	626690	n/a	n/a	n/a	n/a	n/a	n/a
628.424	0.0	nontarget	5	628424	q	0	45.0	n/a	n/a	3
630.957	0.0	nontarget	5	630957	l	0	49.0	n/a	n/a	3
633.04	0.0	nontarget	5	633040	i	0	22.0	n/a	n/a	3
635.407	0.0	nontarget	5	635407	v	0	39.0	n/a	n/a	3
637.74	0.0	nontarget	5	637740	x	0	37.0	n/a	n/a	3
639.873	0.0	target	6	639873	y	1	25.0	1	0.3635219	3
640.157	0.5	BAD keypress	2	640157	n/a	n/a	n/a	n/a	n/a	n/a
640.407	0.0	keypress	4	640407	n/a	n/a	n/a	n/a	n/a	n/a
641.99	0.0	nontarget	5	641990	g	0	36.0	n/a	n/a	3
643.99	0.0	nontarget	5	643990	a	0	17.0	n/a	n/a	3
646.356	0.0	nontarget	5	646356	v	0	39.0	n/a	n/a	3
648.639	0.0	nontarget	5	648639	e	0	34.0	n/a	n/a	3
650.673	0.0	nontarget	5	650673	r	0	19.0	n/a	n/a	3
652.923	0.0	nontarget	5	652923	a	0	32.0	n/a	n/a	3
655.422	0.0	nontarget	5	655422	p	0	47.0	n/a	n/a	3
657.906	0.0	nontarget	5	657906	ä	0	46.0	n/a	n/a	3
660.089	0.0	nontarget	5	660089	w	0	28.0	n/a	n/a	3
662.372	0.0	nontarget	5	662372	k	0	34.0	n/a	n/a	3
664.472	0.0	nontarget	5	664472	z	0	23.0	n/a	n/a	3
666.705	0.0	nontarget	5	666705	g	0	31.0	n/a	n/a	3
669.189	0.0	nontarget	5	669189	h	0	46.0	n/a	n/a	3
671.638	0.0	target	6	671638	j	1	44.0	1	0.5321266	3
672.055	0.5	BAD keypress	2	672055	n/a	n/a	n/a	n/a	n/a	n/a
672.305	0.0	keypress	4	672305	n/a	n/a	n/a	n/a	n/a	n/a
674.005	0.0	nontarget	5	674005	a	0	43.0	n/a	n/a	3
676.538	0.0	nontarget	5	676538	v	0	49.0	n/a	n/a	3
679.021	0.0	nontarget	5	679021	s	0	46.0	n/a	n/a	3
681.071	0.0	nontarget	5	681071	ä	0	20.0	n/a	n/a	3
683.288	0.0	nontarget	5	683288	ü	0	30.0	n/a	n/a	3
685.638	0.0	nontarget	5	685638	c	0	38.0	n/a	n/a	3
687.721	0.0	nontarget	5	687721	e	0	22.0	n/a	n/a	3
689.954	0.0	nontarget	5	689954	m	0	31.0	n/a	n/a	3
692.421	0.0	nontarget	5	692421	v	0	45.0	n/a	n/a	3
694.704	0.0	nontarget	5	694704	w	0	34.0	n/a	n/a	3
696.821	0.0	nontarget	5	696821	z	0	24.0	n/a	n/a	3
698.854	0.0	nontarget	5	698854	y	0	19.0	n/a	n/a	3
701.27	0.0	nontarget	5	701270	ä	0	42.0	n/a	n/a	3
703.62	0.0	target	6	703620	s	1	38.0	1	0.4360118	3
703.937	0.5	BAD keypress	2	703937	n/a	n/a	n/a	n/a	n/a	n/a
704.187	0.0	keypress	4	704187	n/a	n/a	n/a	n/a	n/a	n/a
705.42	0.0	nontarget	5	705420	o	0	15.0	n/a	n/a	3
707.537	0.0	nontarget	5	707537	x	0	24.0	n/a	n/a	3
709.903	0.0	nontarget	5	709903	z	0	39.0	n/a	n/a	3
711.937	0.0	nontarget	5	711937	g	0	19.0	n/a	n/a	3
714.003	0.0	nontarget	5	714003	q	0	21.0	n/a	n/a	3
716.136	0.0	target	6	716136	d	1	25.0	1	0.4951455	3
716.52	0.5	BAD keypress	2	716520	n/a	n/a	n/a	n/a	n/a	n/a
716.77	0.0	keypress	4	716770	n/a	n/a	n/a	n/a	n/a	n/a
718.386	0.0	nontarget	5	718386	d	0	38.0	n/a	n/a	3
720.486	0.0	target	6	720486	g	1	23.0	1	0.369009	3
720.736	0.5	BAD keypress	2	720736	n/a	n/a	n/a	n/a	n/a	n/a
720.986	0.0	keypress	4	720986	n/a	n/a	n/a	n/a	n/a	n/a
722.236	0.0	nontarget	5	722236	i	0	16.0	n/a	n/a	3
724.219	0.0	target	6	724219	f	1	16.0	1	0.4275759	3
724.536	0.5	BAD keypress	2	724536	n/a	n/a	n/a	n/a	n/a	n/a
724.786	0.0	keypress	4	724786	n/a	n/a	n/a	n/a	n/a	n/a
726.053	0.0	target	6	726053	v	1	17.0	1	0.3702684	3
726.286	0.5	BAD keypress	2	726286	n/a	n/a	n/a	n/a	n/a	n/a
726.536	0.0	keypress	4	726536	n/a	n/a	n/a	n/a	n/a	n/a
728.336	0.0	nontarget	5	728336	k	0	49.0	n/a	n/a	3
730.786	0.0	target	6	730786	y	1	44.0	1	0.45276392	3
731.103	0.5	BAD keypress	2	731103	n/a	n/a	n/a	n/a	n/a	n/a
731.353	0.0	keypress	4	731353	n/a	n/a	n/a	n/a	n/a	n/a
732.453	109.09500000000004	BAD_break	3	732453	n/a	n/a	n/a	n/a	n/a	n/a
842.048	0.0	target	6	842048	k	1	26.0	1	0.3995286	4
842.331	0.5	BAD keypress	2	842331	n/a	n/a	n/a	n/a	n/a	n/a
842.581	0.0	keypress	4	842581	n/a	n/a	n/a	n/a	n/a	n/a
844.381	0.0	nontarget	5	844381	x	0	48.0	n/a	n/a	4
846.764	0.0	nontarget	5	846764	r	0	40.0	n/a	n/a	4
849.147	0.0	nontarget	5	849147	e	0	40.0	n/a	n/a	4
851.481	0.0	target	6	851481	h	1	37.0	1	0.3580319	4
851.697	0.5	BAD keypress	2	851697	n/a	n/a	n/a	n/a	n/a	n/a
851.947	0.0	keypress	4	851947	n/a	n/a	n/a	n/a	n/a	n/a
853.664	0.0	nontarget	5	853664	o	0	44.0	n/a	n/a	4
855.697	0.0	nontarget	5	855697	f	0	19.0	n/a	n/a	4
857.847	0.0	nontarget	5	857847	m	0	26.0	n/a	n/a	4
860.197	0.0	nontarget	5	860197	g	0	38.0	n/a	n/a	4
862.563	0.0	target	6	862563	s	1	39.0	1	0.458456	4
862.913	0.5	BAD keypress	2	862913	n/a	n/a	n/a	n/a	n/a	n/a
863.163	0.0	keypress	4	863163	n/a	n/a	n/a	n/a	n/a	n/a
864.78	0.0	nontarget	5	864780	ß	0	38.0	n/a	n/a	4
867.03	0.0	nontarget	5	867030	u	0	32.0	n/a	n/a	4
869.446	0.0	nontarget	5	869446	b	0	42.0	n/a	n/a	4
871.746	0.0	nontarget	5	871746	l	0	35.0	n/a	n/a	4
873.696	0.0	nontarget	5	873696	c	0	14.0	n/a	n/a	4
875.946	0.0	nontarget	5	875946	w	0	32.0	n/a	n/a	4
878.313	0.0	target	6	878313	u	1	39.0	1	0.4039959	4
878.596	0.5	BAD keypress	2	878596	n/a	n/a	n/a	n/a	n/a	n/a
878.846	0.0	keypress	4	878846	n/a	n/a	n/a	n/a	n/a	n/a
880.596	0.0	nontarget	5	880596	ä	0	46.0	n/a	n/a	4
882.563	0.0	nontarget	5	882563	s	0	15.0	n/a	n/a	4
884.579	0.0	target	6	884579	i	1	18.0	1	0.4092279	4
884.846	0.5	BAD keypress	2	884846	n/a	n/a	n/a	n/a	n/a	n/a
885.096	0.0	keypress	4	885096	n/a	n/a	n/a	n/a	n/a	n/a
886.896	0.0	nontarget	5	886896	p	0	48.0	n/a	n/a	4
889.212	0.0	nontarget	5	889212	c	0	36.0	n/a	n/a	4
891.529	0.0	nontarget	5	891529	u	0	36.0	n/a	n/a	4
893.829	0.0	nontarget	5	893829	o	0	35.0	n/a	n/a	4
896.145	0.0	target	6	896145	x	1	36.0	1	0.3462957	4
896.362	0.5	BAD keypress	2	896362	n/a	n/a	n/a	n/a	n/a	n/a
896.612	0.0	keypress	4	896612	n/a	n/a	n/a	n/a	n/a	n/a
897.995	0.0	nontarget	5	897995	n	0	23.0	n/a	n/a	4
900.262	0.0	nontarget	5	900262	d	0	33.0	n/a	n/a	4
902.528	0.0	nontarget	5	902528	c	0	33.0	n/a	n/a	4
905.062	0.0	nontarget	5	905062	ö	0	49.0	n/a	n/a	4
907.345	0.0	nontarget	5	907345	z	0	34.0	n/a	n/a	4
909.578	0.0	nontarget	5	909578	q	0	31.0	n/a	n/a	4
911.928	0.0	target	6	911928	l	1	38.0	1	0.4346151	4
912.211	0.5	BAD keypress	2	912211	n/a	n/a	n/a	n/a	n/a	n/a
912.461	0.0	keypress	4	912461	n/a	n/a	n/a	n/a	n/a	n/a
913.878	0.0	nontarget	5	913878	x	0	26.0	n/a	n/a	4
915.911	0.0	nontarget	5	915911	g	0	19.0	n/a	n/a	4
918.344	0.0	nontarget	5	918344	ü	0	43.0	n/a	n/a	4
920.611	0.0	nontarget	5	920611	u	0	33.0	n/a	n/a	4
923.011	0.0	nontarget	5	923011	e	0	41.0	n/a	n/a	4
925.311	0.0	nontarget	5	925311	q	0	35.0	n/a	n/a	4
927.361	0.0	target	6	927361	w	1	20.0	1	0.4567769	4
927.677	0.5	BAD keypress	2	927677	n/a	n/a	n/a	n/a	n/a	n/a
927.927	0.0	keypress	4	927927	n/a	n/a	n/a	n/a	n/a	n/a
929.61	0.0	nontarget	5	929610	v	0	42.0	n/a	n/a	4
931.694	0.0	nontarget	5	931694	o	0	22.0	n/a	n/a	4
933.777	0.0	nontarget	5	933777	d	0	22.0	n/a	n/a	4
935.727	0.0	target	6	935727	q	1	14.0	1	0.3940171	4
935.994	0.5	BAD keypress	2	935994	n/a	n/a	n/a	n/a	n/a	n/a
936.244	0.0	keypress	4	936244	n/a	n/a	n/a	n/a	n/a	n/a
937.493	0.0	nontarget	5	937493	v	0	16.0	n/a	n/a	4
939.927	0.0	nontarget	5	939927	o	0	43.0	n/a	n/a	4
942.11	0.0	nontarget	5	942110	d	0	28.0	n/a	n/a	4
944.126	0.0	nontarget	5	944126	e	0	18.0	n/a	n/a	4
946.343	0.0	nontarget	5	946343	i	0	30.0	n/a	n/a	4
948.743	0.0	nontarget	5	948743	v	0	41.0	n/a	n/a	4
951.159	0.0	nontarget	5	951159	k	0	42.0	n/a	n/a	4
953.276	0.0	nontarget	5	953276	n	0	24.0	n/a	n/a	4
955.643	0.0	target	6	955643	n	1	39.0	1	0.3809404	4
955.893	0.5	BAD keypress	2	955893	n/a	n/a	n/a	n/a	n/a	n/a
956.143	0.0	keypress	4	956143	n/a	n/a	n/a	n/a	n/a	n/a
957.376	0.0	nontarget	5	957376	h	0	15.0	n/a	n/a	4
959.642	0.0	target	6	959642	j	1	33.0	1	0.4128034	4
959.959	0.5	BAD keypress	2	959959	n/a	n/a	n/a	n/a	n/a	n/a
960.209	0.0	keypress	4	960209	n/a	n/a	n/a	n/a	n/a	n/a
961.592	0.0	nontarget	5	961592	e	0	24.0	n/a	n/a	4
963.759	0.0	nontarget	5	963759	ß	0	27.0	n/a	n/a	4
966.092	0.0	target	6	966092	ü	1	37.0	1	0.362629	4
966.326	0.5	BAD keypress	2	966326	n/a	n/a	n/a	n/a	n/a	n/a
966.576	0.0	keypress	4	966576	n/a	n/a	n/a	n/a	n/a	n/a
967.942	0.0	nontarget	5	967942	p	0	23.0	n/a	n/a	4
969.959	0.0	nontarget	5	969959	s	0	18.0	n/a	n/a	4
972.109	0.0	nontarget	5	972109	u	0	26.0	n/a	n/a	4
974.342	0.0	nontarget	5	974342	ü	0	31.0	n/a	n/a	4
976.675	0.0	target	6	976675	v	1	37.0	1	0.3711298	4
976.942	0.5	BAD keypress	2	976942	n/a	n/a	n/a	n/a	n/a	n/a
977.192	0.0	keypress	4	977192	n/a	n/a	n/a	n/a	n/a	n/a
978.442	0.0	nontarget	5	978442	b	0	16.0	n/a	n/a	4
980.625	0.0	nontarget	5	980625	ö	0	28.0	n/a	n/a	4
982.891	0.0	nontarget	5	982891	d	0	33.0	n/a	n/a	4
984.908	0.0	nontarget	5	984908	a	0	18.0	n/a	n/a	4
986.008	21.881999999999948	BAD_break	3	986008	n/a	n/a	n/a	n/a	n/a	n/a
1008.39	0.0	target	6	1008390	b	1	30.0	1	0.4936048	5
1008.757	0.5	BAD keypress	2	1008757	n/a	n/a	n/a	n/a	n/a	n/a
1009.007	0.0	keypress	4	1009007	n/a	n/a	n/a	n/a	n/a	n/a
1010.274	0.0	target	6	1010274	p	1	16.0	1	0.3542731	5
1010.49	0.5	BAD keypress	2	1010490	n/a	n/a	n/a	n/a	n/a	n/a
1010.74	0.0	keypress	4	1010740	n/a	n/a	n/a	n/a	n/a	n/a
1012.223	0.0	nontarget	5	1012223	x	0	29.0	n/a	n/a	5
1014.657	0.0	nontarget	5	1014657	l	0	43.0	n/a	n/a	5
1017.157	0.0	nontarget	5	1017157	r	0	47.0	n/a	n/a	5
1019.406	0.0	target	6	1019406	q	1	32.0	1	0.4048155	5
1019.673	0.5	BAD keypress	2	1019673	n/a	n/a	n/a	n/a	n/a	n/a
1019.923	0.0	keypress	4	1019923	n/a	n/a	n/a	n/a	n/a	n/a
1021.59	0.0	nontarget	5	1021590	k	0	41.0	n/a	n/a	5
1023.973	0.0	nontarget	5	1023973	f	0	40.0	n/a	n/a	5
1026.39	0.0	target	6	1026390	s	1	42.0	1	0.4132137	5
1026.656	0.5	BAD keypress	2	1026656	n/a	n/a	n/a	n/a	n/a	n/a
1026.906	0.0	keypress	4	1026906	n/a	n/a	n/a	n/a	n/a	n/a
1028.206	0.0	nontarget	5	1028206	l	0	19.0	n/a	n/a	5
1030.289	0.0	nontarget	5	1030289	o	0	22.0	n/a	n/a	5
1032.556	0.0	nontarget	5	1032556	m	0	33.0	n/a	n/a	5
1034.989	0.0	nontarget	5	1034989	ö	0	43.0	n/a	n/a	5
1037.089	0.0	nontarget	5	1037089	x	0	23.0	n/a	n/a	5
1039.206	0.0	nontarget	5	1039206	y	0	24.0	n/a	n/a	5
1041.539	0.0	nontarget	5	1041539	r	0	37.0	n/a	n/a	5
1044.022	0.0	nontarget	5	1044022	w	0	46.0	n/a	n/a	5
1046.372	0.0	nontarget	5	1046372	b	0	38.0	n/a	n/a	5
1048.539	0.0	nontarget	5	1048539	d	0	27.0	n/a	n/a	5
1050.805	0.0	nontarget	5	1050805	ü	0	33.0	n/a	n/a	5
1053.338	0.0	nontarget	5	1053338	f	0	49.0	n/a	n/a	5
1055.705	0.0	nontarget	5	1055705	ö	0	39.0	n/a	n/a	5
1057.855	0.0	nontarget	5	1057855	b	0	26.0	n/a	n/a	5
1060.088	0.0	target	6	1060088	ü	1	31.0	1	0.4085399	5
1060.371	0.5	BAD keypress	2	1060371	n/a	n/a	n/a	n/a	n/a	n/a
1060.621	0.0	keypress	4	1060621	n/a	n/a	n/a	n/a	n/a	n/a
1062.071	0.0	target	6	1062071	d	1	28.0	1	0.5689941	5
1062.538	0.5	BAD keypress	2	1062538	n/a	n/a	n/a	n/a	n/a	n/a
1062.788	0.0	keypress	4	1062788	n/a	n/a	n/a	n/a	n/a	n/a
1064.171	0.0	nontarget	5	1064171	l	0	24.0	n/a	n/a	5
1066.171	0.0	nontarget	5	1066171	r	0	17.0	n/a	n/a	5
1068.504	0.0	nontarget	5	1068504	f	0	37.0	n/a	n/a	5
1070.638	0.0	nontarget	5	1070638	t	0	25.0	n/a	n/a	5
1072.671	0.0	nontarget	5	1072671	k	0	19.0	n/a	n/a	5
1075.187	0.0	nontarget	5	1075187	c	0	48.0	n/a	n/a	5
1077.687	0.0	target	6	1077687	m	1	47.0	1	0.3920525	5
1077.987	0.5	BAD keypress	2	1077987	n/a	n/a	n/a	n/a	n/a	n/a
1078.237	0.0	keypress	4	1078237	n/a	n/a	n/a	n/a	n/a	n/a
1079.804	0.0	nontarget	5	1079804	q	0	34.0	n/a	n/a	5
1082.154	0.0	nontarget	5	1082154	y	0	38.0	n/a	n/a	5
1084.57	0.0	nontarget	5	1084570	n	0	42.0	n/a	n/a	5
1086.604	0.0	target	6	1086604	x	1	19.0	1	0.4191627	5
1086.92	0.5	BAD keypress	2	1086920	n/a	n/a	n/a	n/a	n/a	n/a
1087.17	0.0	keypress	4	1087170	n/a	n/a	n/a	n/a	n/a	n/a
1088.703	0.0	nontarget	5	1088703	b	0	33.0	n/a	n/a	5
1091.22	0.0	nontarget	5	1091220	h	0	48.0	n/a	n/a	5
1093.487	0.0	nontarget	5	1093487	v	0	33.0	n/a	n/a	5
1095.437	0.0	nontarget	5	1095437	n	0	14.0	n/a	n/a	5
1097.853	0.0	nontarget	5	1097853	l	0	42.0	n/a	n/a	5
1100.17	0.0	nontarget	5	1100170	q	0	36.0	n/a	n/a	5
1102.336	0.0	nontarget	5	1102336	ä	0	27.0	n/a	n/a	5
1104.819	0.0	nontarget	5	1104819	b	0	46.0	n/a	n/a	5
1106.986	0.0	nontarget	5	1106986	k	0	27.0	n/a	n/a	5
1109.003	0.0	nontarget	5	1109003	g	0	18.0	n/a	n/a	5
1111.086	0.0	nontarget	5	1111086	p	0	22.0	n/a	n/a	5
1113.236	0.0	nontarget	5	1113236	d	0	26.0	n/a	n/a	5
1115.402	0.0	nontarget	5	1115402	c	0	27.0	n/a	n/a	5
1117.836	0.0	nontarget	5	1117836	ö	0	43.0	n/a	n/a	5
1119.885	0.0	nontarget	5	1119885	f	0	20.0	n/a	n/a	5
1122.319	0.0	nontarget	5	1122319	q	0	43.0	n/a	n/a	5
1124.319	0.0	nontarget	5	1124319	e	0	17.0	n/a	n/a	5
1126.618	0.0	nontarget	5	1126618	ß	0	35.0	n/a	n/a	5
1128.718	0.0	nontarget	5	1128718	o	0	23.0	n/a	n/a	5
1131.118	0.0	target	6	1131118	t	1	41.0	1	0.3654379	5
1131.368	0.5	BAD keypress	2	1131368	n/a	n/a	n/a	n/a	n/a	n/a
1131.618	0.0	keypress	4	1131618	n/a	n/a	n/a	n/a	n/a	n/a
1133.285	0.0	nontarget	5	1133285	ö	0	41.0	n/a	n/a	5
1135.585	0.0	nontarget	5	1135585	j	0	35.0	n/a	n/a	5
1138.118	0.0	nontarget	5	1138118	s	0	49.0	n/a	n/a	5
1140.101	0.0	nontarget	5	1140101	ä	0	16.0	n/a	n/a	5
1142.518	0.0	nontarget	5	1142518	c	0	42.0	n/a	n/a	5
1144.834	0.0	nontarget	5	1144834	y	0	36.0	n/a	n/a	5
1147.201	0.0	target	6	1147201	ä	1	39.0	1	0.3936486	5
1147.451	0.5	BAD keypress	2	1147451	n/a	n/a	n/a	n/a	n/a	n/a
1147.701	0.0	keypress	4	1147701	n/a	n/a	n/a	n/a	n/a	n/a
1149.384	0.0	nontarget	5	1149384	ß	0	42.0	n/a	n/a	5
1151.767	0.0	target	6	1151767	r	1	40.0	1	0.4669544	5
1152.117	0.5	BAD keypress	2	1152117	n/a	n/a	n/a	n/a	n/a	n/a
1152.367	0.0	keypress	4	1152367	n/a	n/a	n/a	n/a	n/a	n/a
1153.601	0.0	nontarget	5	1153601	g	0	15.0	n/a	n/a	5
1154.701	27.947999999999865	BAD_break	3	1154701	n/a	n/a	n/a	n/a	n/a	n/a
1183.149	0.0	nontarget	5	1183149	t	0	18.0	n/a	n/a	6
1185.499	0.0	nontarget	5	1185499	q	0	38.0	n/a	n/a	6
1187.782	0.0	target	6	1187782	h	1	34.0	1	0.4335195	6
1188.083	0.5	BAD keypress	2	1188083	n/a	n/a	n/a	n/a	n/a	n/a
1188.333	0.0	keypress	4	1188333	n/a	n/a	n/a	n/a	n/a	n/a
1189.566	0.0	target	6	1189566	n	1	15.0	1	0.3940288	6
1189.849	0.5	BAD keypress	2	1189849	n/a	n/a	n/a	n/a	n/a	n/a
1190.099	0.0	keypress	4	1190099	n/a	n/a	n/a	n/a	n/a	n/a
1191.882	0.0	nontarget	5	1191882	t	0	48.0	n/a	n/a	6
1194.199	0.0	nontarget	5	1194199	ß	0	36.0	n/a	n/a	6
1196.732	0.0	nontarget	5	1196732	z	0	49.0	n/a	n/a	6
1199.232	0.0	nontarget	5	1199232	p	0	47.0	n/a	n/a	6
1201.682	0.0	nontarget	5	1201682	c	0	44.0	n/a	n/a	6
1204.182	0.0	nontarget	5	1204182	s	0	47.0	n/a	n/a	6
1206.248	0.0	nontarget	5	1206248	e	0	21.0	n/a	n/a	6
1208.682	0.0	nontarget	5	1208682	t	0	43.0	n/a	n/a	6
1211.231	0.0	target	6	1211231	f	1	50.0	1	0.4548416	6
1211.565	0.5	BAD keypress	2	1211565	n/a	n/a	n/a	n/a	n/a	n/a
1211.815	0.0	keypress	4	1211815	n/a	n/a	n/a	n/a	n/a	n/a
1213.348	0.0	nontarget	5	1213348	f	0	33.0	n/a	n/a	6
1215.631	0.0	nontarget	5	1215631	r	0	34.0	n/a	n/a	6
1217.898	0.0	nontarget	5	1217898	a	0	33.0	n/a	n/a	6
1220.348	0.0	nontarget	5	1220348	t	0	44.0	n/a	n/a	6
1222.431	0.0	nontarget	5	1222431	m	0	22.0	n/a	n/a	6
1224.781	0.0	nontarget	5	1224781	k	0	38.0	n/a	n/a	6
1227.097	0.0	nontarget	5	1227097	u	0	36.0	n/a	n/a	6
1229.081	0.0	nontarget	5	1229081	x	0	16.0	n/a	n/a	6
1231.597	0.0	nontarget	5	1231597	j	0	48.0	n/a	n/a	6
1233.597	0.0	target	6	1233597	w	1	17.0	1	0.4076639	6
1233.881	0.5	BAD keypress	2	1233881	n/a	n/a	n/a	n/a	n/a	n/a
1234.131	0.0	keypress	4	1234131	n/a	n/a	n/a	n/a	n/a	n/a
1235.93	0.0	nontarget	5	1235930	d	0	49.0	n/a	n/a	6
1238.147	0.0	target	6	1238147	d	1	30.0	1	0.4175563	6
1238.414	0.5	BAD keypress	2	1238414	n/a	n/a	n/a	n/a	n/a	n/a
1238.664	0.0	keypress	4	1238664	n/a	n/a	n/a	n/a	n/a	n/a
1240.18	0.0	target	6	1240180	p	1	32.0	1	0.368101	6
1240.447	0.5	BAD keypress	2	1240447	n/a	n/a	n/a	n/a	n/a	n/a
1240.697	0.0	keypress	4	1240697	n/a	n/a	n/a	n/a	n/a	n/a
1241.93	0.0	nontarget	5	1241930	w	0	15.0	n/a	n/a	6
1244.247	0.0	nontarget	5	1244247	l	0	36.0	n/a	n/a	6
1246.68	0.0	nontarget	5	1246680	j	0	43.0	n/a	n/a	6
1248.963	0.0	nontarget	5	1248963	k	0	34.0	n/a	n/a	6
1251.396	0.0	nontarget	5	1251396	s	0	43.0	n/a	n/a	6
1253.813	0.0	nontarget	5	1253813	x	0	42.0	n/a	n/a	6
1256.196	0.0	nontarget	5	1256196	m	0	40.0	n/a	n/a	6
1258.379	0.0	nontarget	5	1258379	r	0	28.0	n/a	n/a	6
1260.579	0.0	nontarget	5	1260579	k	0	29.0	n/a	n/a	6
1262.629	0.0	nontarget	5	1262629	y	0	20.0	n/a	n/a	6
1264.846	0.0	nontarget	5	1264846	ä	0	30.0	n/a	n/a	6
1266.996	0.0	nontarget	5	1266996	d	0	26.0	n/a	n/a	6
1269.262	0.0	nontarget	5	1269262	k	0	33.0	n/a	n/a	6
1271.812	0.0	target	6	1271812	t	1	50.0	1	0.430098	6
1272.112	0.5	BAD keypress	2	1272112	n/a	n/a	n/a	n/a	n/a	n/a
1272.362	0.0	keypress	4	1272362	n/a	n/a	n/a	n/a	n/a	n/a
1274.112	0.0	nontarget	5	1274112	n	0	46.0	n/a	n/a	6
1276.395	0.0	nontarget	5	1276395	w	0	34.0	n/a	n/a	6
1278.679	0.0	target	6	1278679	ä	1	34.0	1	0.3793015	6
1278.929	0.5	BAD keypress	2	1278929	n/a	n/a	n/a	n/a	n/a	n/a
1279.179	0.0	keypress	4	1279179	n/a	n/a	n/a	n/a	n/a	n/a
1280.862	0.0	nontarget	5	1280862	h	0	42.0	n/a	n/a	6
1283.162	0.0	nontarget	5	1283162	s	0	35.0	n/a	n/a	6
1285.712	0.0	target	6	1285712	h	1	50.0	1	0.3697821	6
1285.928	0.5	BAD keypress	2	1285928	n/a	n/a	n/a	n/a	n/a	n/a
1286.178	0.0	keypress	4	1286178	n/a	n/a	n/a	n/a	n/a	n/a
1287.395	0.0	nontarget	5	1287395	d	0	14.0	n/a	n/a	6
1289.795	0.0	nontarget	5	1289795	p	0	41.0	n/a	n/a	6
1292.211	0.0	nontarget	5	1292211	ß	0	42.0	n/a	n/a	6
1294.161	0.0	nontarget	5	1294161	w	0	14.0	n/a	n/a	6
1296.594	0.0	nontarget	5	1296594	z	0	43.0	n/a	n/a	6
1299.128	0.0	nontarget	5	1299128	q	0	49.0	n/a	n/a	6
1301.628	0.0	nontarget	5	1301628	p	0	47.0	n/a	n/a	6
1303.711	0.0	target	6	1303711	m	1	22.0	1	0.4333714	6
1303.978	0.5	BAD keypress	2	1303978	n/a	n/a	n/a	n/a	n/a	n/a
1304.228	0.0	keypress	4	1304228	n/a	n/a	n/a	n/a	n/a	n/a
1305.444	0.0	nontarget	5	1305444	m	0	14.0	n/a	n/a	6
1307.711	0.0	nontarget	5	1307711	l	0	33.0	n/a	n/a	6
1309.777	0.0	target	6	1309777	y	1	21.0	1	0.4945556	6
1310.161	0.5	BAD keypress	2	1310161	n/a	n/a	n/a	n/a	n/a	n/a
1310.411	0.0	keypress	4	1310411	n/a	n/a	n/a	n/a	n/a	n/a
1312.027	0.0	nontarget	5	1312027	y	0	38.0	n/a	n/a	6
1314.144	0.0	nontarget	5	1314144	m	0	24.0	n/a	n/a	6
1316.627	0.0	target	6	1316627	b	1	46.0	1	0.4283222	6
1316.977	0.5	BAD keypress	2	1316977	n/a	n/a	n/a	n/a	n/a	n/a
1317.227	0.0	keypress	4	1317227	n/a	n/a	n/a	n/a	n/a	n/a
1318.643	0.0	target	6	1318643	ä	1	26.0	1	0.4116316	6
1318.944	0.5	BAD keypress	2	1318944	n/a	n/a	n/a	n/a	n/a	n/a
1319.194	0.0	keypress	4	1319194	n/a	n/a	n/a	n/a	n/a	n/a
1320.543	0.0	nontarget	5	1320543	x	0	22.0	n/a	n/a	6
1322.91	0.0	nontarget	5	1322910	a	0	39.0	n/a	n/a	6
1325.077	0.0	target	6	1325077	t	1	27.0	1	0.4101066	6
1325.36	0.5	BAD keypress	2	1325360	n/a	n/a	n/a	n/a	n/a	n/a
1325.61	0.0	keypress	4	1325610	n/a	n/a	n/a	n/a	n/a	n/a
1327.076	0.0	nontarget	5	1327076	z	0	29.0	n/a	n/a	6
1329.043	0.0	nontarget	5	1329043	ü	0	15.0	n/a	n/a	6
1330.143	26.2320000000002	BAD_break	3	1330143	n/a	n/a	n/a	n/a	n/a	n/a
1356.875	0.0	nontarget	5	1356875	o	0	31.0	n/a	n/a	7
1359.158	0.0	nontarget	5	1359158	ä	0	34.0	n/a	n/a	7
1361.708	0.0	nontarget	5	1361708	m	0	50.0	n/a	n/a	7
1363.958	0.0	nontarget	5	1363958	ö	0	32.0	n/a	n/a	7
1366.275	0.0	nontarget	5	1366275	s	0	36.0	n/a	n/a	7
1368.775	0.0	nontarget	5	1368775	c	0	47.0	n/a	n/a	7
1371.025	0.0	target	6	1371025	m	1	32.0	1	0.4750368	7
1371.391	0.5	BAD keypress	2	1371391	n/a	n/a	n/a	n/a	n/a	n/a
1371.641	0.0	keypress	4	1371641	n/a	n/a	n/a	n/a	n/a	n/a
1372.958	0.0	nontarget	5	1372958	n	0	20.0	n/a	n/a	7
1375.291	0.0	nontarget	5	1375291	p	0	37.0	n/a	n/a	7
1377.708	0.0	nontarget	5	1377708	c	0	42.0	n/a	n/a	7
1379.724	0.0	nontarget	5	1379724	ß	0	18.0	n/a	n/a	7
1381.757	0.0	target	6	1381757	b	1	19.0	1	0.3814808	7
1381.991	0.5	BAD keypress	2	1381991	n/a	n/a	n/a	n/a	n/a	n/a
1382.241	0.0	keypress	4	1382241	n/a	n/a	n/a	n/a	n/a	n/a
1383.991	0.0	nontarget	5	1383991	u	0	46.0	n/a	n/a	7
1386.274	0.0	nontarget	5	1386274	f	0	34.0	n/a	n/a	7
1388.624	0.0	nontarget	5	1388624	r	0	38.0	n/a	n/a	7
1390.874	0.0	nontarget	5	1390874	h	0	32.0	n/a	n/a	7
1393.424	0.0	nontarget	5	1393424	k	0	50.0	n/a	n/a	7
1395.423	0.0	nontarget	5	1395423	w	0	17.0	n/a	n/a	7
1397.64	0.0	nontarget	5	1397640	ß	0	30.0	n/a	n/a	7
1399.857	0.0	nontarget	5	1399857	v	0	30.0	n/a	n/a	7
1402.29	0.0	nontarget	5	1402290	r	0	43.0	n/a	n/a	7
1404.456	0.0	nontarget	5	1404456	ü	0	27.0	n/a	n/a	7
1406.59	0.0	nontarget	5	1406590	d	0	25.0	n/a	n/a	7
1408.923	0.0	nontarget	5	1408923	z	0	37.0	n/a	n/a	7
1411.373	0.0	target	6	1411373	n	1	44.0	1	0.3961367	7
1411.623	0.5	BAD keypress	2	1411623	n/a	n/a	n/a	n/a	n/a	n/a
1411.873	0.0	keypress	4	1411873	n/a	n/a	n/a	n/a	n/a	n/a
1413.089	0.0	nontarget	5	1413089	ü	0	14.0	n/a	n/a	7
1415.123	0.0	target	6	1415123	c	1	19.0	1	0.4220024	7
1415.406	0.5	BAD keypress	2	1415406	n/a	n/a	n/a	n/a	n/a	n/a
1415.656	0.0	keypress	4	1415656	n/a	n/a	n/a	n/a	n/a	n/a
1416.889	0.0	nontarget	5	1416889	ä	0	15.0	n/a	n/a	7
1419.089	0.0	nontarget	5	1419089	e	0	29.0	n/a	n/a	7
1421.456	0.0	nontarget	5	1421456	b	0	39.0	n/a	n/a	7
1423.856	0.0	target	6	1423856	h	1	41.0	1	0.3604455	7
1424.089	0.5	BAD keypress	2	1424089	n/a	n/a	n/a	n/a	n/a	n/a
1424.339	0.0	keypress	4	1424339	n/a	n/a	n/a	n/a	n/a	n/a
1426.105	0.0	nontarget	5	1426105	k	0	47.0	n/a	n/a	7
1428.139	0.0	nontarget	5	1428139	o	0	19.0	n/a	n/a	7
1430.472	0.0	nontarget	5	1430472	y	0	37.0	n/a	n/a	7
1432.572	0.0	nontarget	5	1432572	i	0	23.0	n/a	n/a	7
1435.022	0.0	nontarget	5	1435022	r	0	44.0	n/a	n/a	7
1437.305	0.0	nontarget	5	1437305	e	0	34.0	n/a	n/a	7
1439.272	0.0	target	6	1439272	p	1	15.0	1	0.4313456	7
1439.572	0.5	BAD keypress	2	1439572	n/a	n/a	n/a	n/a	n/a	n/a
1439.822	0.0	keypress	4	1439822	n/a	n/a	n/a	n/a	n/a	n/a
1441.238	0.0	nontarget	5	1441238	m	0	26.0	n/a	n/a	7
1443.538	0.0	nontarget	5	1443538	r	0	35.0	n/a	n/a	7
1445.838	0.0	nontarget	5	1445838	ä	0	35.0	n/a	n/a	7
1448.304	0.0	nontarget	5	1448304	a	0	45.0	n/a	n/a	7
1450.738	0.0	nontarget	5	1450738	e	0	43.0	n/a	n/a	7
1452.838	0.0	target	6	1452838	g	1	23.0	1	0.4004825	7
1453.088	0.5	BAD keypress	2	1453088	n/a	n/a	n/a	n/a	n/a	n/a
1453.338	0.0	keypress	4	1453338	n/a	n/a	n/a	n/a	n/a	n/a
1454.854	0.0	nontarget	5	1454854	h	0	32.0	n/a	n/a	7
1457.337	0.0	target	6	1457337	z	1	46.0	1	0.4283481	7
1457.638	0.5	BAD keypress	2	1457638	n/a	n/a	n/a	n/a	n/a	n/a
1457.888	0.0	keypress	4	1457888	n/a	n/a	n/a	n/a	n/a	n/a
1459.587	0.0	nontarget	5	1459587	x	0	43.0	n/a	n/a	7
1461.904	0.0	nontarget	5	1461904	i	0	36.0	n/a	n/a	7
1463.854	0.0	nontarget	5	1463854	m	0	14.0	n/a	n/a	7
1465.854	0.0	target	6	1465854	u	1	17.0	1	0.359455	7
1466.087	0.5	BAD keypress	2	1466087	n/a	n/a	n/a	n/a	n/a	n/a
1466.337	0.0	keypress	4	1466337	n/a	n/a	n/a	n/a	n/a	n/a
1467.837	0.0	nontarget	5	1467837	q	0	30.0	n/a	n/a	7
1470.22	0.0	target	6	1470220	i	1	40.0	1	0.4406411	7
1470.554	0.5	BAD keypress	2	1470554	n/a	n/a	n/a	n/a	n/a	n/a
1470.804	0.0	keypress	4	1470804	n/a	n/a	n/a	n/a	n/a	n/a
1472.287	0.0	nontarget	5	1472287	g	0	30.0	n/a	n/a	7
1474.537	0.0	target	6	1474537	r	1	32.0	1	0.3959556	7
1474.787	0.5	BAD keypress	2	1474787	n/a	n/a	n/a	n/a	n/a	n/a
1475.037	0.0	keypress	4	1475037	n/a	n/a	n/a	n/a	n/a	n/a
1476.503	0.0	nontarget	5	1476503	d	0	29.0	n/a	n/a	7
1478.87	0.0	nontarget	5	1478870	j	0	39.0	n/a	n/a	7
1481.203	0.0	nontarget	5	1481203	ä	0	37.0	n/a	n/a	7
1483.62	0.0	nontarget	5	1483620	y	0	42.0	0	0.3363509	7
1483.62	1.0	BAD incorrect	1	1483620	y	0	42.0	0	0.3363509	7
1483.82	0.5	BAD keypress	2	1483820	n/a	n/a	n/a	n/a	n/a	n/a
1484.07	0.0	keypress	4	1484070	n/a	n/a	n/a	n/a	n/a	n/a
1486.103	0.0	nontarget	5	1486103	s	0	32.0	n/a	n/a	7
1488.203	0.0	nontarget	5	1488203	o	0	23.0	n/a	n/a	7
1490.436	0.0	nontarget	5	1490436	q	0	31.0	n/a	n/a	7
1492.736	0.0	nontarget	5	1492736	z	0	35.0	n/a	n/a	7
1494.769	0.0	nontarget	5	1494769	t	0	19.0	n/a	n/a	7
1497.269	0.0	nontarget	5	1497269	ä	0	47.0	n/a	n/a	7
1499.436	0.0	nontarget	5	1499436	ü	0	27.0	n/a	n/a	7
1501.985	0.0	nontarget	5	1501985	a	0	50.0	n/a	n/a	7
1503.085	20.03300000000013	BAD_break	3	1503085	n/a	n/a	n/a	n/a	n/a	n/a
1523.618	0.0	nontarget	5	1523618	ö	0	17.0	n/a	n/a	8
1526.068	0.0	target	6	1526068	c	1	44.0	1	0.4613505	8
1526.368	0.5	BAD keypress	2	1526368	n/a	n/a	n/a	n/a	n/a	n/a
1526.618	0.0	keypress	4	1526618	n/a	n/a	n/a	n/a	n/a	n/a
1528.368	0.0	nontarget	5	1528368	s	0	45.0	n/a	n/a	8
1530.318	0.0	nontarget	5	1530318	j	0	14.0	n/a	n/a	8
1532.267	0.0	nontarget	5	1532267	ß	0	14.0	n/a	n/a	8
1534.451	0.0	nontarget	5	1534451	t	0	28.0	n/a	n/a	8
1536.951	0.0	nontarget	5	1536951	ü	0	47.0	n/a	n/a	8
1539.351	0.0	nontarget	5	1539351	w	0	41.0	n/a	n/a	8
1541.4	0.0	nontarget	5	1541400	ä	0	20.0	n/a	n/a	8
1543.634	0.0	nontarget	5	1543634	m	0	31.0	n/a	n/a	8
1545.584	0.0	nontarget	5	1545584	e	0	14.0	n/a	n/a	8
1547.9	0.0	nontarget	5	1547900	q	0	36.0	n/a	n/a	8
1549.917	0.0	nontarget	5	1549917	z	0	18.0	n/a	n/a	8
1552.4	0.0	nontarget	5	1552400	u	0	46.0	n/a	n/a	8
1554.517	0.0	target	6	1554517	w	1	24.0	1	0.4426603	8
1554.833	0.5	BAD keypress	2	1554833	n/a	n/a	n/a	n/a	n/a	n/a
1555.083	0.0	keypress	4	1555083	n/a	n/a	n/a	n/a	n/a	n/a
1556.3	0.0	target	6	1556300	j	1	14.0	1	0.5312704	8
1556.667	0.5	BAD keypress	2	1556667	n/a	n/a	n/a	n/a	n/a	n/a
1556.917	0.0	keypress	4	1556917	n/a	n/a	n/a	n/a	n/a	n/a
1558.166	0.0	nontarget	5	1558166	ö	0	16.0	n/a	n/a	8
1560.366	0.0	nontarget	5	1560366	y	0	29.0	n/a	n/a	8
1562.55	0.0	nontarget	5	1562550	b	0	28.0	n/a	n/a	8
1564.566	0.0	nontarget	5	1564566	a	0	18.0	n/a	n/a	8
1566.983	0.0	nontarget	5	1566983	e	0	42.0	n/a	n/a	8
1569.049	0.0	target	6	1569049	l	1	21.0	1	0.4849117	8
1569.383	0.5	BAD keypress	2	1569383	n/a	n/a	n/a	n/a	n/a	n/a
1569.633	0.0	keypress	4	1569633	n/a	n/a	n/a	n/a	n/a	n/a
1571.282	0.0	nontarget	5	1571282	ö	0	40.0	n/a	n/a	8
1573.432	0.0	nontarget	5	1573432	u	0	26.0	n/a	n/a	8
1575.849	0.0	target	6	1575849	v	1	42.0	1	0.3727981	8
1576.082	0.5	BAD keypress	2	1576082	n/a	n/a	n/a	n/a	n/a	n/a
1576.332	0.0	keypress	4	1576332	n/a	n/a	n/a	n/a	n/a	n/a
1577.999	0.0	target	6	1577999	s	1	41.0	1	0.3508375	8
1578.232	0.5	BAD keypress	2	1578232	n/a	n/a	n/a	n/a	n/a	n/a
1578.482	0.0	keypress	4	1578482	n/a	n/a	n/a	n/a	n/a	n/a
1579.999	0.0	nontarget	5	1579999	p	0	32.0	n/a	n/a	8
1582.032	0.0	nontarget	5	1582032	e	0	19.0	n/a	n/a	8
1584.265	0.0	nontarget	5	1584265	f	0	31.0	n/a	n/a	8
1586.248	0.0	nontarget	5	1586248	t	0	16.0	n/a	n/a	8
1588.365	0.0	nontarget	5	1588365	w	0	24.0	n/a	n/a	8
1590.598	0.0	nontarget	5	1590598	h	0	31.0	n/a	n/a	8
1593.098	0.0	target	6	1593098	o	1	47.0	1	0.4664005	8
1593.415	0.5	BAD keypress	2	1593415	n/a	n/a	n/a	n/a	n/a	n/a
1593.665	0.0	keypress	4	1593665	n/a	n/a	n/a	n/a	n/a	n/a
1594.881	0.0	nontarget	5	1594881	e	0	14.0	n/a	n/a	8
1596.898	0.0	nontarget	5	1596898	l	0	18.0	n/a	n/a	8
1599.265	0.0	nontarget	5	1599265	n	0	39.0	n/a	n/a	8
1601.614	0.0	nontarget	5	1601614	ä	0	38.0	n/a	n/a	8
1603.714	0.0	target	6	1603714	d	1	23.0	1	0.441499	8
1603.998	0.5	BAD keypress	2	1603998	n/a	n/a	n/a	n/a	n/a	n/a
1604.248	0.0	keypress	4	1604248	n/a	n/a	n/a	n/a	n/a	n/a
1605.781	0.0	nontarget	5	1605781	s	0	33.0	n/a	n/a	8
1608.314	0.0	nontarget	5	1608314	f	0	49.0	n/a	n/a	8
1610.431	0.0	nontarget	5	1610431	e	0	24.0	n/a	n/a	8
1612.597	0.0	nontarget	5	1612597	x	0	27.0	n/a	n/a	8
1615.014	0.0	nontarget	5	1615014	p	0	42.0	n/a	n/a	8
1617.23	0.0	nontarget	5	1617230	ä	0	30.0	n/a	n/a	8
1619.63	0.0	target	6	1619630	r	1	41.0	1	0.4125097	8
1619.897	0.5	BAD keypress	2	1619897	n/a	n/a	n/a	n/a	n/a	n/a
1620.147	0.0	keypress	4	1620147	n/a	n/a	n/a	n/a	n/a	n/a
1621.564	0.0	target	6	1621564	j	1	26.0	1	0.4630781	8
1621.897	0.5	BAD keypress	2	1621897	n/a	n/a	n/a	n/a	n/a	n/a
1622.147	0.0	keypress	4	1622147	n/a	n/a	n/a	n/a	n/a	n/a
1623.714	0.0	nontarget	5	1623714	y	0	35.0	n/a	n/a	8
1626.263	0.0	nontarget	5	1626263	t	0	50.0	n/a	n/a	8
1628.48	0.0	nontarget	5	1628480	o	0	30.0	n/a	n/a	8
1630.93	0.0	nontarget	5	1630930	f	0	44.0	n/a	n/a	8
1633.43	0.0	nontarget	5	1633430	j	0	47.0	n/a	n/a	8
1635.796	0.0	nontarget	5	1635796	n	0	39.0	n/a	n/a	8
1637.913	0.0	nontarget	5	1637913	p	0	24.0	n/a	n/a	8
1640.096	0.0	nontarget	5	1640096	f	0	28.0	n/a	n/a	8
1642.546	0.0	nontarget	5	1642546	ä	0	44.0	n/a	n/a	8
1644.679	0.0	nontarget	5	1644679	r	0	25.0	n/a	n/a	8
1646.946	0.0	nontarget	5	1646946	ß	0	33.0	n/a	n/a	8
1649.362	0.0	nontarget	5	1649362	j	0	42.0	n/a	n/a	8
1651.662	0.0	nontarget	5	1651662	ö	0	35.0	n/a	n/a	8
1653.629	0.0	target	6	1653629	w	1	15.0	1	0.4755505	8
1653.979	0.5	BAD keypress	2	1653979	n/a	n/a	n/a	n/a	n/a	n/a
1654.229	0.0	keypress	4	1654229	n/a	n/a	n/a	n/a	n/a	n/a
1655.512	0.0	nontarget	5	1655512	q	0	18.0	n/a	n/a	8
1657.945	0.0	nontarget	5	1657945	m	0	43.0	n/a	n/a	8
1660.012	0.0	nontarget	5	1660012	d	0	21.0	n/a	n/a	8
1662.562	0.0	nontarget	5	1662562	u	0	50.0	n/a	n/a	8
1664.728	0.0	target	6	1664728	h	1	27.0	1	0.4473534	8
1665.028	0.5	BAD keypress	2	1665028	n/a	n/a	n/a	n/a	n/a	n/a
1665.278	0.0	keypress	4	1665278	n/a	n/a	n/a	n/a	n/a	n/a
1666.845	0.0	nontarget	5	1666845	h	0	35.0	n/a	n/a	8
1667.945	112.06200000000013	BAD_break	3	1667945	n/a	n/a	n/a	n/a	n/a	n/a
1780.507	0.0	nontarget	5	1780507	p	0	35.0	n/a	n/a	9
1782.857	0.0	nontarget	5	1782857	e	0	38.0	n/a	n/a	9
1784.94	0.0	nontarget	5	1784940	a	0	22.0	n/a	n/a	9
1787.256	0.0	nontarget	5	1787256	z	0	36.0	n/a	n/a	9
1789.64	0.0	nontarget	5	1789640	i	0	40.0	n/a	n/a	9
1791.956	0.0	target	6	1791956	p	1	36.0	1	0.4909712	9
1792.356	0.5	BAD keypress	2	1792356	n/a	n/a	n/a	n/a	n/a	n/a
1792.606	0.0	keypress	4	1792606	n/a	n/a	n/a	n/a	n/a	n/a
1794.006	0.0	nontarget	5	1794006	u	0	25.0	n/a	n/a	9
1796.339	0.0	target	6	1796339	ä	1	37.0	1	0.3955699	9
1796.589	0.5	BAD keypress	2	1796589	n/a	n/a	n/a	n/a	n/a	n/a
1796.839	0.0	keypress	4	1796839	n/a	n/a	n/a	n/a	n/a	n/a
1798.623	0.0	target	6	1798623	ü	1	48.0	1	0.4002408	9
1798.889	0.5	BAD keypress	2	1798889	n/a	n/a	n/a	n/a	n/a	n/a
1799.139	0.0	keypress	4	1799139	n/a	n/a	n/a	n/a	n/a	n/a
1800.356	0.0	nontarget	5	1800356	i	0	14.0	n/a	n/a	9
1802.322	0.0	nontarget	5	1802322	ü	0	15.0	n/a	n/a	9
1804.756	0.0	nontarget	5	1804756	z	0	43.0	n/a	n/a	9
1806.989	0.0	nontarget	5	1806989	h	0	31.0	n/a	n/a	9
1809.339	0.0	target	6	1809339	s	1	38.0	1	0.3872394	9
1809.589	0.5	BAD keypress	2	1809589	n/a	n/a	n/a	n/a	n/a	n/a
1809.839	0.0	keypress	4	1809839	n/a	n/a	n/a	n/a	n/a	n/a
1811.305	0.0	nontarget	5	1811305	u	0	29.0	n/a	n/a	9
1813.689	0.0	nontarget	5	1813689	y	0	40.0	n/a	n/a	9
1815.972	0.0	nontarget	5	1815972	i	0	34.0	n/a	n/a	9
1818.372	0.0	nontarget	5	1818372	b	0	41.0	n/a	n/a	9
1820.472	0.0	nontarget	5	1820472	t	0	23.0	n/a	n/a	9
1822.855	0.0	target	6	1822855	q	1	40.0	1	0.406193	9
1823.072	0.5	BAD keypress	2	1823072	n/a	n/a	n/a	n/a	n/a	n/a
1823.322	0.0	keypress	4	1823322	n/a	n/a	n/a	n/a	n/a	n/a
1825.055	0.0	nontarget	5	1825055	v	0	45.0	n/a	n/a	9
1827.421	0.0	nontarget	5	1827421	m	0	39.0	n/a	n/a	9
1829.471	0.0	nontarget	5	1829471	l	0	20.0	n/a	n/a	9
1831.755	0.0	target	6	1831755	k	1	34.0	1	0.3699831	9
1831.988	0.5	BAD keypress	2	1831988	n/a	n/a	n/a	n/a	n/a	n/a
1832.238	0.0	keypress	4	1832238	n/a	n/a	n/a	n/a	n/a	n/a
1833.488	0.0	nontarget	5	1833488	e	0	16.0	n/a	n/a	9
1836.004	0.0	nontarget	5	1836004	x	0	48.0	n/a	n/a	9
1838.288	0.0	target	6	1838288	q	1	34.0	1	0.3964736	9
1838.554	0.5	BAD keypress	2	1838554	n/a	n/a	n/a	n/a	n/a	n/a
1838.804	0.0	keypress	4	1838804	n/a	n/a	n/a	n/a	n/a	n/a
1840.471	0.0	nontarget	5	1840471	a	0	41.0	n/a	n/a	9
1842.904	0.0	target	6	1842904	y	1	43.0	1	0.4037139	9
1843.204	0.5	BAD keypress	2	1843204	n/a	n/a	n/a	n/a	n/a	n/a
1843.454	0.0	keypress	4	1843454	n/a	n/a	n/a	n/a	n/a	n/a
1845.137	0.0	nontarget	5	1845137	h	0	42.0	n/a	n/a	9
1847.62	0.0	nontarget	5	1847620	u	0	46.0	n/a	n/a	9
1850.137	0.0	nontarget	5	1850137	c	0	48.0	n/a	n/a	9
1852.304	0.0	nontarget	5	1852304	a	0	27.0	n/a	n/a	9
1854.737	0.0	nontarget	5	1854737	y	0	43.0	n/a	n/a	9
1857.253	0.0	nontarget	5	1857253	ü	0	48.0	n/a	n/a	9
1859.687	0.0	nontarget	5	1859687	b	0	43.0	n/a	n/a	9
1862.137	0.0	nontarget	5	1862137	g	0	44.0	n/a	n/a	9
1864.686	0.0	nontarget	5	1864686	w	0	50.0	n/a	n/a	9
1867.02	0.0	nontarget	5	1867020	f	0	37.0	n/a	n/a	9
1869.52	0.0	nontarget	5	1869520	y	0	47.0	n/a	n/a	9
1871.619	0.0	target	6	1871619	m	1	23.0	1	0.4703635	9
1871.936	0.5	BAD keypress	2	1871936	n/a	n/a	n/a	n/a	n/a	n/a
1872.186	0.0	keypress	4	1872186	n/a	n/a	n/a	n/a	n/a	n/a
1873.619	0.0	target	6	1873619	a	1	27.0	1	0.4063464	9
1873.919	0.5	BAD keypress	2	1873919	n/a	n/a	n/a	n/a	n/a	n/a
1874.169	0.0	keypress	4	1874169	n/a	n/a	n/a	n/a	n/a	n/a
1875.569	0.0	nontarget	5	1875569	o	0	25.0	n/a	n/a	9
1877.669	0.0	nontarget	5	1877669	i	0	23.0	n/a	n/a	9
1880.002	0.0	nontarget	5	1880002	r	0	37.0	n/a	n/a	9
1882.052	0.0	nontarget	5	1882052	q	0	20.0	n/a	n/a	9
1884.002	0.0	nontarget	5	1884002	j	0	14.0	n/a	n/a	9
1886.019	0.0	nontarget	5	1886019	u	0	18.0	n/a	n/a	9
1887.985	0.0	nontarget	5	1887985	r	0	15.0	n/a	n/a	9
1890.102	0.0	nontarget	5	1890102	ö	0	24.0	n/a	n/a	9
1892.552	0.0	nontarget	5	1892552	t	0	44.0	n/a	n/a	9
1895.052	0.0	nontarget	5	1895052	ß	0	47.0	n/a	n/a	9
1897.335	0.0	target	6	1897335	l	1	34.0	1	0.4970689	9
1897.685	0.5	BAD keypress	2	1897685	n/a	n/a	n/a	n/a	n/a	n/a
1897.935	0.0	keypress	4	1897935	n/a	n/a	n/a	n/a	n/a	n/a
1899.568	0.0	nontarget	5	1899568	j	0	39.0	n/a	n/a	9
1901.918	0.0	nontarget	5	1901918	i	0	38.0	n/a	n/a	9
1904.268	0.0	nontarget	5	1904268	ü	0	38.0	n/a	n/a	9
1906.451	0.0	nontarget	5	1906451	r	0	28.0	n/a	n/a	9
1908.801	0.0	nontarget	5	1908801	m	0	38.0	n/a	n/a	9
1911.168	0.0	target	6	1911168	p	1	39.0	1	0.4074287	9
1911.434	0.5	BAD keypress	2	1911434	n/a	n/a	n/a	n/a	n/a	n/a
1911.684	0.0	keypress	4	1911684	n/a	n/a	n/a	n/a	n/a	n/a
1913.184	0.0	nontarget	5	1913184	w	0	31.0	n/a	n/a	9
1915.134	0.0	nontarget	5	1915134	p	0	14.0	n/a	n/a	9
1917.501	0.0	nontarget	5	1917501	f	0	39.0	n/a	n/a	9
1919.801	0.0	nontarget	5	1919801	r	0	35.0	n/a	n/a	9
1921.884	0.0	nontarget	5	1921884	x	0	22.0	n/a	n/a	9
1924.217	0.0	nontarget	5	1924217	ß	0	37.0	n/a	n/a	9
1926.75	0.0	nontarget	5	1926750	j	0	49.0	n/a	n/a	9
1927.85	121.04500000000009	BAD_break	3	1927850	n/a	n/a	n/a	n/a	n/a	n/a
2049.395	0.0	nontarget	5	2049395	n	0	38.0	n/a	n/a	10
2051.345	0.0	nontarget	5	2051345	a	0	14.0	n/a	n/a	10
2053.728	0.0	target	6	2053728	e	1	40.0	1	0.3973365	10
2054.012	0.5	BAD keypress	2	2054012	n/a	n/a	n/a	n/a	n/a	n/a
2054.262	0.0	keypress	4	2054262	n/a	n/a	n/a	n/a	n/a	n/a
2055.961	0.0	target	6	2055961	c	1	43.0	1	0.4038864	10
2056.245	0.5	BAD keypress	2	2056245	n/a	n/a	n/a	n/a	n/a	n/a
2056.495	0.0	keypress	4	2056495	n/a	n/a	n/a	n/a	n/a	n/a
2058.095	0.0	target	6	2058095	w	1	36.0	1	0.3824902	10
2058.345	0.5	BAD keypress	2	2058345	n/a	n/a	n/a	n/a	n/a	n/a
2058.595	0.0	keypress	4	2058595	n/a	n/a	n/a	n/a	n/a	n/a
2060.395	0.0	nontarget	5	2060395	d	0	49.0	n/a	n/a	10
2062.894	0.0	nontarget	5	2062894	g	0	47.0	n/a	n/a	10
2065.344	0.0	target	6	2065344	e	1	44.0	1	0.3803504	10
2065.578	0.5	BAD keypress	2	2065578	n/a	n/a	n/a	n/a	n/a	n/a
2065.828	0.0	keypress	4	2065828	n/a	n/a	n/a	n/a	n/a	n/a
2067.211	0.0	nontarget	5	2067211	ü	0	24.0	n/a	n/a	10
2069.228	0.0	nontarget	5	2069228	p	0	18.0	n/a	n/a	10
2071.244	0.0	nontarget	5	2071244	c	0	18.0	n/a	n/a	10
2073.377	0.0	nontarget	5	2073377	x	0	25.0	n/a	n/a	10
2075.694	0.0	target	6	2075694	g	1	36.0	1	0.4460982	10
2076.011	0.5	BAD keypress	2	2076011	n/a	n/a	n/a	n/a	n/a	n/a
2076.261	0.0	keypress	4	2076261	n/a	n/a	n/a	n/a	n/a	n/a
2077.91	0.0	target	6	2077910	b	1	40.0	1	0.3894431	10
2078.161	0.5	BAD keypress	2	2078161	n/a	n/a	n/a	n/a	n/a	n/a
2078.411	0.0	keypress	4	2078411	n/a	n/a	n/a	n/a	n/a	n/a
2079.877	0.0	nontarget	5	2079877	h	0	29.0	n/a	n/a	10
2082.26	0.0	nontarget	5	2082260	ö	0	40.0	n/a	n/a	10
2084.327	0.0	nontarget	5	2084327	s	0	21.0	n/a	n/a	10
2085.427	86.62300000000005	BAD_break	3	2085427	n/a	n/a	n/a	n/a	n/a	n/a
2172.55	0.0	nontarget	5	2172550	p	0	15.0	n/a	n/a	10
2175.05	0.0	nontarget	5	2175050	j	0	47.0	n/a	n/a	10
2177.15	0.0	nontarget	5	2177150	f	0	23.0	n/a	n/a	10
2179.517	0.0	nontarget	5	2179517	x	0	39.0	n/a	n/a	10
2181.467	0.0	nontarget	5	2181467	k	0	14.0	n/a	n/a	10
2183.933	0.0	nontarget	5	2183933	j	0	45.0	n/a	n/a	10
2185.966	0.0	nontarget	5	2185966	n	0	19.0	n/a	n/a	10
2188.25	0.0	nontarget	5	2188250	i	0	34.0	n/a	n/a	10
2190.4	0.0	target	6	2190400	x	1	26.0	1	0.4209291	10
2190.683	0.5	BAD keypress	2	2190683	n/a	n/a	n/a	n/a	n/a	n/a
2190.933	0.0	keypress	4	2190933	n/a	n/a	n/a	n/a	n/a	n/a
2192.199	0.0	nontarget	5	2192199	ü	0	17.0	n/a	n/a	10
2194.466	0.0	target	6	2194466	n	1	33.0	1	0.40217	10
2194.733	0.5	BAD keypress	2	2194733	n/a	n/a	n/a	n/a	n/a	n/a
2194.983	0.0	keypress	4	2194983	n/a	n/a	n/a	n/a	n/a	n/a
2196.433	0.0	nontarget	5	2196433	k	0	28.0	n/a	n/a	10
2198.649	0.0	nontarget	5	2198649	c	0	30.0	n/a	n/a	10
2200.916	0.0	nontarget	5	2200916	d	0	33.0	n/a	n/a	10
2203.466	0.0	nontarget	5	2203466	q	0	50.0	n/a	n/a	10
2205.816	0.0	nontarget	5	2205816	a	0	38.0	n/a	n/a	10
2207.999	0.0	nontarget	5	2207999	f	0	28.0	n/a	n/a	10
2210.032	0.0	nontarget	5	2210032	i	0	19.0	n/a	n/a	10
2212.282	0.0	nontarget	5	2212282	h	0	32.0	n/a	n/a	10
2214.515	0.0	nontarget	5	2214515	p	0	31.0	n/a	n/a	10
2217.048	0.0	nontarget	5	2217048	j	0	49.0	n/a	n/a	10
2219.315	0.0	target	6	2219315	r	1	33.0	1	0.4794791	10
2219.665	0.5	BAD keypress	2	2219665	n/a	n/a	n/a	n/a	n/a	n/a
2219.915	0.0	keypress	4	2219915	n/a	n/a	n/a	n/a	n/a	n/a
2221.648	0.0	nontarget	5	2221648	z	0	45.0	n/a	n/a	10
2223.965	0.0	nontarget	5	2223965	ü	0	36.0	n/a	n/a	10
2226.115	0.0	nontarget	5	2226115	i	0	26.0	n/a	n/a	10
2228.431	0.0	nontarget	5	2228431	t	0	36.0	n/a	n/a	10
2230.798	0.0	nontarget	5	2230798	ö	0	39.0	n/a	n/a	10
2233.348	0.0	nontarget	5	2233348	r	0	50.0	n/a	n/a	10
2235.781	0.0	target	6	2235781	p	1	43.0	1	0.3965194	10
2236.031	0.5	BAD keypress	2	2236031	n/a	n/a	n/a	n/a	n/a	n/a
2236.281	0.0	keypress	4	2236281	n/a	n/a	n/a	n/a	n/a	n/a
2238.081	0.0	nontarget	5	2238081	p	0	49.0	n/a	n/a	10
2240.364	0.0	nontarget	5	2240364	n	0	34.0	n/a	n/a	10
2242.664	0.0	nontarget	5	2242664	c	0	35.0	n/a	n/a	10
2245.064	0.0	nontarget	5	2245064	a	0	41.0	n/a	n/a	10
2247.164	0.0	target	6	2247164	n	1	23.0	1	0.4049263	10
2247.431	0.5	BAD keypress	2	2247431	n/a	n/a	n/a	n/a	n/a	n/a
2247.681	0.0	keypress	4	2247681	n/a	n/a	n/a	n/a	n/a	n/a
2248.914	0.0	nontarget	5	2248914	u	0	15.0	n/a	n/a	10
2251.33	0.0	target	6	2251330	i	1	42.0	1	0.4141618	10
2251.614	0.5	BAD keypress	2	2251614	n/a	n/a	n/a	n/a	n/a	n/a
2251.864	0.0	keypress	4	2251864	n/a	n/a	n/a	n/a	n/a	n/a
2253.53	0.0	nontarget	5	2253530	g	0	41.0	n/a	n/a	10
2255.963	0.0	nontarget	5	2255963	v	0	43.0	n/a	n/a	10
2258.197	0.0	target	6	2258197	z	1	31.0	1	0.3633152	10
2258.43	0.5	BAD keypress	2	2258430	n/a	n/a	n/a	n/a	n/a	n/a
2258.68	0.0	keypress	4	2258680	n/a	n/a	n/a	n/a	n/a	n/a
2260.247	0.0	nontarget	5	2260247	c	0	35.0	n/a	n/a	10
2262.78	0.0	nontarget	5	2262780	d	0	49.0	n/a	n/a	10
2264.73	0.0	nontarget	5	2264730	k	0	14.0	n/a	n/a	10
2267.196	0.0	target	6	2267196	r	1	45.0	1	0.4191016	10
2267.496	0.5	BAD keypress	2	2267496	n/a	n/a	n/a	n/a	n/a	n/a
2267.746	0.0	keypress	4	2267746	n/a	n/a	n/a	n/a	n/a	n/a
2269.013	0.0	target	6	2269013	z	1	17.0	1	0.4263943	10
2269.296	0.5	BAD keypress	2	2269296	n/a	n/a	n/a	n/a	n/a	n/a
2269.546	0.0	keypress	4	2269546	n/a	n/a	n/a	n/a	n/a	n/a
2271.029	0.0	nontarget	5	2271029	l	0	30.0	n/a	n/a	10
2273.496	0.0	nontarget	5	2273496	ä	0	45.0	n/a	n/a	10
2275.979	0.0	target	6	2275979	q	1	46.0	1	0.3555013	10
2276.196	0.5	BAD keypress	2	2276196	n/a	n/a	n/a	n/a	n/a	n/a
2276.446	0.0	keypress	4	2276446	n/a	n/a	n/a	n/a	n/a	n/a
2277.796	0.0	nontarget	5	2277796	j	0	22.0	n/a	n/a	10
2279.812	0.0	target	6	2279812	y	1	18.0	1	0.3941687	10
2280.079	0.5	BAD keypress	2	2280079	n/a	n/a	n/a	n/a	n/a	n/a
2280.329	0.0	keypress	4	2280329	n/a	n/a	n/a	n/a	n/a	n/a
2282.112	0.0	nontarget	5	2282112	l	0	48.0	n/a	n/a	10
2284.229	0.0	nontarget	5	2284229	u	0	24.0	n/a	n/a	10
2286.362	0.0	nontarget	5	2286362	m	0	25.0	n/a	n/a	10
2288.812	0.0	nontarget	5	2288812	s	0	44.0	n/a	n/a	10
2291.362	0.0	nontarget	5	2291362	l	0	50.0	n/a	n/a	10
2293.728	0.0	target	6	2293728	c	1	39.0	1	0.3811276	10
2293.962	0.5	BAD keypress	2	2293962	n/a	n/a	n/a	n/a	n/a	n/a
2294.212	0.0	keypress	4	2294212	n/a	n/a	n/a	n/a	n/a	n/a
2295.545	0.0	nontarget	5	2295545	y	0	21.0	n/a	n/a	10
2297.762	0.0	nontarget	5	2297762	ß	0	30.0	n/a	n/a	10
2300.212	0.0	nontarget	5	2300212	f	0	44.0	n/a	n/a	10
2302.445	0.0	nontarget	5	2302445	h	0	31.0	n/a	n/a	10
2304.511	0.0	nontarget	5	2304511	t	0	21.0	n/a	n/a	10
2306.528	0.0	target	6	2306528	h	1	18.0	1	0.4128333	10
2306.811	0.5	BAD keypress	2	2306811	n/a	n/a	n/a	n/a	n/a	n/a
2307.061	0.0	keypress	4	2307061	n/a	n/a	n/a	n/a	n/a	n/a
2308.594	0.0	target	6	2308594	v	1	33.0	1	0.3301192	10
2308.811	0.5	BAD keypress	2	2308811	n/a	n/a	n/a	n/a	n/a	n/a
2309.061	0.0	keypress	4	2309061	n/a	n/a	n/a	n/a	n/a	n/a
2310.428	0.0	nontarget	5	2310428	s	0	23.0	n/a	n/a	10
2312.728	0.0	nontarget	5	2312728	i	0	35.0	n/a	n/a	10
2314.928	0.0	nontarget	5	2314928	a	0	29.0	n/a	n/a	10
2317.211	0.0	nontarget	5	2317211	r	0	34.0	n/a	n/a	11
2318.311	23.032000000000156	BAD_break	3	2318311	n/a	n/a	n/a	n/a	n/a	n/a
2341.843	0.0	target	6	2341843	f	1	16.0	1	0.4232891	12
2342.143	0.5	BAD keypress	2	2342143	n/a	n/a	n/a	n/a	n/a	n/a
2342.393	0.0	keypress	4	2342393	n/a	n/a	n/a	n/a	n/a	n/a
2343.793	0.0	nontarget	5	2343793	ß	0	25.0	n/a	n/a	12
2346.293	0.0	nontarget	5	2346293	p	0	47.0	n/a	n/a	12
2348.459	0.0	nontarget	5	2348459	o	0	27.0	n/a	n/a	12
2350.459	0.0	target	6	2350459	ü	1	17.0	1	0.3664437	12
2350.659	0.5	BAD keypress	2	2350659	n/a	n/a	n/a	n/a	n/a	n/a
2350.909	0.0	keypress	4	2350909	n/a	n/a	n/a	n/a	n/a	n/a
2352.626	0.0	target	6	2352626	a	1	44.0	1	0.3917129	12
2352.876	0.5	BAD keypress	2	2352876	n/a	n/a	n/a	n/a	n/a	n/a
2353.126	0.0	keypress	4	2353126	n/a	n/a	n/a	n/a	n/a	n/a
2354.559	0.0	target	6	2354559	g	1	27.0	1	0.3943404	12
2354.809	0.5	BAD keypress	2	2354809	n/a	n/a	n/a	n/a	n/a	n/a
2355.059	0.0	keypress	4	2355059	n/a	n/a	n/a	n/a	n/a	n/a
2356.476	0.0	target	6	2356476	f	1	26.0	1	0.3976247	12
2356.743	0.5	BAD keypress	2	2356743	n/a	n/a	n/a	n/a	n/a	n/a
2356.993	0.0	keypress	4	2356993	n/a	n/a	n/a	n/a	n/a	n/a
2358.392	0.0	target	6	2358392	x	1	25.0	1	0.3208354	12
2358.576	0.5	BAD keypress	2	2358576	n/a	n/a	n/a	n/a	n/a	n/a
2358.826	0.0	keypress	4	2358826	n/a	n/a	n/a	n/a	n/a	n/a
2360.209	0.0	nontarget	5	2360209	g	0	24.0	0	0.3441588	12
2360.209	1.0	BAD incorrect	1	2360209	g	0	24.0	0	0.3441588	12
2360.376	0.5	BAD keypress	2	2360376	n/a	n/a	n/a	n/a	n/a	n/a
2360.626	0.0	keypress	4	2360626	n/a	n/a	n/a	n/a	n/a	n/a
2362.492	0.0	target	6	2362492	e	1	22.0	1	0.508842	12
2362.842	0.5	BAD keypress	2	2362842	n/a	n/a	n/a	n/a	n/a	n/a
2363.092	0.0	keypress	4	2363092	n/a	n/a	n/a	n/a	n/a	n/a
2364.775	0.0	nontarget	5	2364775	p	0	42.0	n/a	n/a	12
2366.759	0.0	nontarget	5	2366759	n	0	16.0	n/a	n/a	12
2369.142	0.0	nontarget	5	2369142	i	0	40.0	n/a	n/a	12
2371.342	0.0	nontarget	5	2371342	m	0	29.0	n/a	n/a	12
2373.375	0.0	nontarget	5	2373375	r	0	19.0	n/a	n/a	12
2375.692	0.0	nontarget	5	2375692	z	0	36.0	n/a	n/a	12
2378.058	0.0	nontarget	5	2378058	d	0	39.0	n/a	n/a	12
2380.125	0.0	nontarget	5	2380125	c	0	21.0	n/a	n/a	12
2382.458	0.0	nontarget	5	2382458	ä	0	37.0	n/a	n/a	12
2384.625	0.0	nontarget	5	2384625	k	0	27.0	n/a	n/a	12
2387.141	0.0	nontarget	5	2387141	ü	0	48.0	n/a	n/a	12
2389.641	0.0	nontarget	5	2389641	w	0	47.0	n/a	n/a	12
2391.691	0.0	nontarget	5	2391691	l	0	20.0	n/a	n/a	12
2393.641	0.0	nontarget	5	2393641	b	0	14.0	n/a	n/a	12
2396.024	0.0	nontarget	5	2396024	g	0	40.0	n/a	n/a	12
2398.407	0.0	nontarget	5	2398407	v	0	40.0	n/a	n/a	12
2400.524	0.0	nontarget	5	2400524	y	0	24.0	n/a	n/a	12
2403.007	0.0	nontarget	5	2403007	ß	0	46.0	n/a	n/a	12
2405.29	0.0	nontarget	5	2405290	r	0	34.0	n/a	n/a	12
2407.824	0.0	nontarget	5	2407824	i	0	49.0	n/a	n/a	12
2410.107	0.0	nontarget	5	2410107	z	0	34.0	n/a	n/a	12
2412.157	0.0	nontarget	5	2412157	w	0	20.0	n/a	n/a	12
2414.107	0.0	target	6	2414107	n	1	14.0	1	0.4109832	12
2414.357	0.5	BAD keypress	2	2414357	n/a	n/a	n/a	n/a	n/a	n/a
2414.607	0.0	keypress	4	2414607	n/a	n/a	n/a	n/a	n/a	n/a
2415.99	0.0	nontarget	5	2415990	f	0	24.0	n/a	n/a	12
2418.523	0.0	nontarget	5	2418523	ö	0	49.0	n/a	n/a	12
2420.473	0.0	nontarget	5	2420473	g	0	14.0	n/a	n/a	12
2422.99	0.0	target	6	2422990	f	1	48.0	1	0.4874106	12
2423.34	0.5	BAD keypress	2	2423340	n/a	n/a	n/a	n/a	n/a	n/a
2423.59	0.0	keypress	4	2423590	n/a	n/a	n/a	n/a	n/a	n/a
2425.389	0.0	nontarget	5	2425389	v	0	49.0	n/a	n/a	12
2427.856	0.0	nontarget	5	2427856	m	0	45.0	n/a	n/a	12
2430.223	0.0	nontarget	5	2430223	o	0	39.0	n/a	n/a	12
2432.689	0.0	nontarget	5	2432689	a	0	45.0	n/a	n/a	12
2434.839	0.0	target	6	2434839	o	1	26.0	1	0.4771218	12
2435.156	0.5	BAD keypress	2	2435156	n/a	n/a	n/a	n/a	n/a	n/a
2435.406	0.0	keypress	4	2435406	n/a	n/a	n/a	n/a	n/a	n/a
2436.856	0.0	nontarget	5	2436856	c	0	28.0	n/a	n/a	12
2439.006	0.0	nontarget	5	2439006	z	0	26.0	n/a	n/a	12
2441.305	0.0	nontarget	5	2441305	d	0	35.0	n/a	n/a	12
2443.472	0.0	nontarget	5	2443472	v	0	27.0	n/a	n/a	12
2445.739	0.0	nontarget	5	2445739	c	0	33.0	n/a	n/a	12
2447.972	0.0	nontarget	5	2447972	o	0	31.0	n/a	n/a	12
2450.138	0.0	nontarget	5	2450138	f	0	27.0	n/a	n/a	12
2452.205	0.0	nontarget	5	2452205	l	0	21.0	n/a	n/a	12
2454.438	0.0	nontarget	5	2454438	ü	0	31.0	n/a	n/a	12
2456.405	0.0	nontarget	5	2456405	n	0	15.0	n/a	n/a	12
2458.488	0.0	nontarget	5	2458488	t	0	22.0	n/a	n/a	12
2460.455	0.0	nontarget	5	2460455	a	0	15.0	n/a	n/a	12
2462.788	0.0	nontarget	5	2462788	u	0	37.0	n/a	n/a	12
2465.021	0.0	target	6	2465021	s	1	31.0	1	0.4210273	12
2465.304	0.5	BAD keypress	2	2465304	n/a	n/a	n/a	n/a	n/a	n/a
2465.554	0.0	keypress	4	2465554	n/a	n/a	n/a	n/a	n/a	n/a
2467.021	0.0	nontarget	5	2467021	q	0	28.0	n/a	n/a	12
2469.438	0.0	nontarget	5	2469438	o	0	42.0	n/a	n/a	12
2471.454	0.0	nontarget	5	2471454	r	0	18.0	n/a	n/a	12
2473.921	0.0	nontarget	5	2473921	n	0	45.0	n/a	n/a	12
2476.371	0.0	target	6	2476371	b	1	44.0	1	0.4147129	12
2476.637	0.5	BAD keypress	2	2476637	n/a	n/a	n/a	n/a	n/a	n/a
2476.887	0.0	keypress	4	2476887	n/a	n/a	n/a	n/a	n/a	n/a
2478.321	0.0	nontarget	5	2478321	q	0	27.0	n/a	n/a	12
2480.604	0.0	nontarget	5	2480604	i	0	34.0	n/a	n/a	12
2482.87	0.0	nontarget	5	2482870	y	0	33.0	n/a	n/a	12
2485.204	0.0	nontarget	5	2485204	b	0	37.0	n/a	n/a	12
2486.304	68.02999999999975	BAD_break	3	2486304	n/a	n/a	n/a	n/a	n/a	n/a
2554.834	0.0	nontarget	5	2554834	h	0	43.0	n/a	n/a	13
2557.0	0.0	target	6	2557000	i	1	27.0	1	0.4194201	13
2557.301	0.5	BAD keypress	2	2557301	n/a	n/a	n/a	n/a	n/a	n/a
2557.551	0.0	keypress	4	2557551	n/a	n/a	n/a	n/a	n/a	n/a
2559.184	0.0	nontarget	5	2559184	n	0	39.0	n/a	n/a	13
2561.367	0.0	nontarget	5	2561367	k	0	28.0	n/a	n/a	13
2563.45	0.0	nontarget	5	2563450	g	0	22.0	n/a	n/a	13
2565.5	0.0	nontarget	5	2565500	i	0	20.0	n/a	n/a	13
2567.7	0.0	target	6	2567700	u	1	29.0	1	0.3911366	13
2567.933	0.5	BAD keypress	2	2567933	n/a	n/a	n/a	n/a	n/a	n/a
2568.183	0.0	keypress	4	2568183	n/a	n/a	n/a	n/a	n/a	n/a
2569.633	0.0	nontarget	5	2569633	h	0	28.0	n/a	n/a	13
2571.983	0.0	nontarget	5	2571983	ä	0	38.0	n/a	n/a	13
2574.166	0.0	nontarget	5	2574166	c	0	28.0	n/a	n/a	13
2576.65	0.0	nontarget	5	2576650	j	0	46.0	n/a	n/a	13
2579.166	0.0	nontarget	5	2579166	s	0	48.0	n/a	n/a	13
2581.183	0.0	nontarget	5	2581183	g	0	18.0	n/a	n/a	13
2583.416	0.0	nontarget	5	2583416	u	0	31.0	n/a	n/a	13
2585.449	0.0	nontarget	5	2585449	t	0	19.0	n/a	n/a	13
2587.982	0.0	nontarget	5	2587982	j	0	49.0	n/a	n/a	13
2590.416	0.0	nontarget	5	2590416	q	0	43.0	n/a	n/a	13
2592.466	0.0	nontarget	5	2592466	g	0	20.0	n/a	n/a	13
2594.465	0.0	nontarget	5	2594465	o	0	17.0	n/a	n/a	13
2596.932	0.0	nontarget	5	2596932	f	0	45.0	n/a	n/a	13
2598.949	0.0	nontarget	5	2598949	q	0	18.0	n/a	n/a	13
2601.215	0.0	nontarget	5	2601215	d	0	33.0	n/a	n/a	13
2603.582	0.0	nontarget	5	2603582	v	0	39.0	n/a	n/a	13
2605.998	0.0	nontarget	5	2605998	w	0	42.0	n/a	n/a	13
2608.315	0.0	nontarget	5	2608315	m	0	36.0	n/a	n/a	13
2610.481	0.0	nontarget	5	2610481	k	0	27.0	n/a	n/a	13
2613.015	0.0	nontarget	5	2613015	t	0	49.0	n/a	n/a	13
2615.181	0.0	nontarget	5	2615181	e	0	27.0	n/a	n/a	13
2617.714	0.0	target	6	2617714	q	1	49.0	1	0.453355	13
2617.998	0.5	BAD keypress	2	2617998	n/a	n/a	n/a	n/a	n/a	n/a
2618.248	0.0	keypress	4	2618248	n/a	n/a	n/a	n/a	n/a	n/a
2619.698	0.0	nontarget	5	2619698	x	0	28.0	n/a	n/a	13
2622.031	0.0	nontarget	5	2622031	c	0	37.0	n/a	n/a	13
2624.148	0.0	nontarget	5	2624148	w	0	24.0	n/a	n/a	13
2626.464	0.0	target	6	2626464	a	1	36.0	1	0.4390829	13
2626.781	0.5	BAD keypress	2	2626781	n/a	n/a	n/a	n/a	n/a	n/a
2627.031	0.0	keypress	4	2627031	n/a	n/a	n/a	n/a	n/a	n/a
2628.614	0.0	nontarget	5	2628614	i	0	36.0	n/a	n/a	13
2630.664	0.0	nontarget	5	2630664	t	0	20.0	n/a	n/a	13
2632.964	0.0	nontarget	5	2632964	ü	0	35.0	n/a	n/a	13
2635.264	0.0	nontarget	5	2635264	l	0	35.0	n/a	n/a	13
2637.697	0.0	target	6	2637697	a	1	43.0	1	0.4054231	13
2637.98	0.5	BAD keypress	2	2637980	n/a	n/a	n/a	n/a	n/a	n/a
2638.23	0.0	keypress	4	2638230	n/a	n/a	n/a	n/a	n/a	n/a
2639.614	0.0	nontarget	5	2639614	c	0	24.0	n/a	n/a	13
2641.647	0.0	nontarget	5	2641647	ö	0	19.0	n/a	n/a	13
2643.847	0.0	nontarget	5	2643847	s	0	29.0	n/a	n/a	13
2645.88	0.0	target	6	2645880	u	1	19.0	1	0.4619477	13
2646.18	0.5	BAD keypress	2	2646180	n/a	n/a	n/a	n/a	n/a	n/a
2646.43	0.0	keypress	4	2646430	n/a	n/a	n/a	n/a	n/a	n/a
2648.197	0.0	nontarget	5	2648197	d	0	47.0	n/a	n/a	13
2650.563	0.0	nontarget	5	2650563	b	0	39.0	n/a	n/a	13
2652.58	0.0	nontarget	5	2652580	x	0	18.0	n/a	n/a	13
2654.83	0.0	nontarget	5	2654830	e	0	32.0	n/a	n/a	13
2657.113	0.0	nontarget	5	2657113	g	0	34.0	n/a	n/a	13
2659.479	0.0	target	6	2659479	g	1	39.0	1	0.4616542	13
2659.779	0.5	BAD keypress	2	2659779	n/a	n/a	n/a	n/a	n/a	n/a
2660.029	0.0	keypress	4	2660029	n/a	n/a	n/a	n/a	n/a	n/a
2661.846	0.0	nontarget	5	2661846	z	0	50.0	n/a	n/a	13
2664.112	0.0	nontarget	5	2664112	p	0	33.0	n/a	n/a	13
2666.279	0.0	nontarget	5	2666279	ü	0	27.0	n/a	n/a	13
2668.379	0.0	nontarget	5	2668379	u	0	23.0	n/a	n/a	13
2670.779	0.0	nontarget	5	2670779	s	0	41.0	n/a	n/a	13
2672.729	0.0	target	6	2672729	u	1	14.0	1	0.4433672	13
2673.012	0.5	BAD keypress	2	2673012	n/a	n/a	n/a	n/a	n/a	n/a
2673.262	0.0	keypress	4	2673262	n/a	n/a	n/a	n/a	n/a	n/a
2674.862	0.0	target	6	2674862	ü	1	37.0	1	0.4379357	13
2675.162	0.5	BAD keypress	2	2675162	n/a	n/a	n/a	n/a	n/a	n/a
2675.412	0.0	keypress	4	2675412	n/a	n/a	n/a	n/a	n/a	n/a
2676.695	0.0	nontarget	5	2676695	g	0	18.0	n/a	n/a	13
2678.862	0.0	nontarget	5	2678862	o	0	27.0	n/a	n/a	13
2680.812	0.0	nontarget	5	2680812	b	0	14.0	n/a	n/a	13
2683.095	0.0	nontarget	5	2683095	s	0	34.0	n/a	n/a	13
2685.078	0.0	nontarget	5	2685078	ß	0	16.0	n/a	n/a	13
2687.128	0.0	nontarget	5	2687128	g	0	20.0	n/a	n/a	13
2689.645	0.0	nontarget	5	2689645	ä	0	48.0	n/a	n/a	13
2691.861	0.0	nontarget	5	2691861	x	0	30.0	n/a	n/a	13
2694.095	0.0	nontarget	5	2694095	t	0	31.0	n/a	n/a	13
2696.194	0.0	nontarget	5	2696194	q	0	23.0	n/a	n/a	13
2698.644	0.0	target	6	2698644	ä	1	44.0	1	0.462089	13
2698.961	0.5	BAD keypress	2	2698961	n/a	n/a	n/a	n/a	n/a	n/a
2699.211	0.0	keypress	4	2699211	n/a	n/a	n/a	n/a	n/a	n/a
2700.311	23.09900000000016	BAD_break	3	2700311	n/a	n/a	n/a	n/a	n/a	n/a
2723.91	0.0	nontarget	5	2723910	l	0	25.0	n/a	n/a	14
2725.96	0.0	nontarget	5	2725960	z	0	20.0	n/a	n/a	14
2727.91	0.0	nontarget	5	2727910	o	0	14.0	n/a	n/a	14
2730.443	0.0	target	6	2730443	o	1	49.0	1	0.4532092	14
2730.776	0.5	BAD keypress	2	2730776	n/a	n/a	n/a	n/a	n/a	n/a
2731.026	0.0	keypress	4	2731026	n/a	n/a	n/a	n/a	n/a	n/a
2732.509	0.0	nontarget	5	2732509	k	0	30.0	n/a	n/a	14
2734.709	0.0	nontarget	5	2734709	d	0	29.0	n/a	n/a	14
2736.993	0.0	nontarget	5	2736993	b	0	34.0	n/a	n/a	14
2738.943	0.0	nontarget	5	2738943	p	0	14.0	n/a	n/a	14
2741.443	0.0	nontarget	5	2741443	x	0	47.0	n/a	n/a	14
2743.592	0.0	target	6	2743592	b	1	26.0	1	0.3909644	14
2743.826	0.5	BAD keypress	2	2743826	n/a	n/a	n/a	n/a	n/a	n/a
2744.076	0.0	keypress	4	2744076	n/a	n/a	n/a	n/a	n/a	n/a
2745.492	0.0	nontarget	5	2745492	j	0	26.0	n/a	n/a	14
2747.842	0.0	nontarget	5	2747842	h	0	38.0	n/a	n/a	14
2750.142	0.0	nontarget	5	2750142	f	0	35.0	n/a	n/a	14
2752.159	0.0	nontarget	5	2752159	p	0	18.0	n/a	n/a	14
2754.409	0.0	nontarget	5	2754409	t	0	32.0	n/a	n/a	14
2756.508	0.0	nontarget	5	2756508	r	0	23.0	n/a	n/a	14
2759.008	0.0	nontarget	5	2759008	z	0	47.0	n/a	n/a	14
2761.192	0.0	nontarget	5	2761192	w	0	28.0	n/a	n/a	14
2763.442	0.0	nontarget	5	2763442	t	0	32.0	n/a	n/a	14
2765.825	0.0	target	6	2765825	l	1	40.0	1	0.4610348	14
2766.192	0.5	BAD keypress	2	2766192	n/a	n/a	n/a	n/a	n/a	n/a
2766.442	0.0	keypress	4	2766442	n/a	n/a	n/a	n/a	n/a	n/a
2767.858	0.0	target	6	2767858	x	1	26.0	1	0.3956298	14
2768.108	0.5	BAD keypress	2	2768108	n/a	n/a	n/a	n/a	n/a	n/a
2768.358	0.0	keypress	4	2768358	n/a	n/a	n/a	n/a	n/a	n/a
2769.625	0.0	nontarget	5	2769625	y	0	16.0	n/a	n/a	14
2771.625	0.0	nontarget	5	2771625	ö	0	17.0	n/a	n/a	14
2774.174	0.0	nontarget	5	2774174	j	0	50.0	n/a	n/a	14
2776.708	0.0	nontarget	5	2776708	d	0	49.0	n/a	n/a	14
2779.124	0.0	target	6	2779124	v	1	42.0	1	0.4087247	14
2779.408	0.5	BAD keypress	2	2779408	n/a	n/a	n/a	n/a	n/a	n/a
2779.658	0.0	keypress	4	2779658	n/a	n/a	n/a	n/a	n/a	n/a
2781.274	0.0	nontarget	5	2781274	t	0	38.0	n/a	n/a	14
2783.457	0.0	nontarget	5	2783457	s	0	28.0	n/a	n/a	14
2785.407	0.0	target	6	2785407	l	1	14.0	1	0.4452329	14
2785.707	0.5	BAD keypress	2	2785707	n/a	n/a	n/a	n/a	n/a	n/a
2785.957	0.0	keypress	4	2785957	n/a	n/a	n/a	n/a	n/a	n/a
2787.207	0.0	nontarget	5	2787207	ö	0	16.0	n/a	n/a	14
2789.574	0.0	nontarget	5	2789574	n	0	39.0	n/a	n/a	14
2791.774	0.0	target	6	2791774	k	1	29.0	1	0.4144023	14
2792.057	0.5	BAD keypress	2	2792057	n/a	n/a	n/a	n/a	n/a	n/a
2792.307	0.0	keypress	4	2792307	n/a	n/a	n/a	n/a	n/a	n/a
2794.024	0.0	nontarget	5	2794024	y	0	44.0	n/a	n/a	14
2795.973	0.0	nontarget	5	2795973	x	0	14.0	n/a	n/a	14
2797.94	0.0	nontarget	5	2797940	ö	0	15.0	n/a	n/a	14
2799.94	0.0	nontarget	5	2799940	g	0	17.0	n/a	n/a	14
2802.223	0.0	nontarget	5	2802223	o	0	34.0	n/a	n/a	14
2804.19	0.0	target	6	2804190	d	1	15.0	1	0.4294314	14
2804.457	0.5	BAD keypress	2	2804457	n/a	n/a	n/a	n/a	n/a	n/a
2804.707	0.0	keypress	4	2804707	n/a	n/a	n/a	n/a	n/a	n/a
2806.006	0.0	nontarget	5	2806006	w	0	19.0	n/a	n/a	14
2808.54	0.0	nontarget	5	2808540	j	0	49.0	n/a	n/a	14
2810.523	0.0	nontarget	5	2810523	c	0	16.0	n/a	n/a	14
2812.573	0.0	nontarget	5	2812573	ß	0	20.0	n/a	n/a	14
2814.989	0.0	nontarget	5	2814989	a	0	42.0	n/a	n/a	14
2817.306	0.0	target	6	2817306	c	1	36.0	1	0.4004855	14
2817.556	0.5	BAD keypress	2	2817556	n/a	n/a	n/a	n/a	n/a	n/a
2817.806	0.0	keypress	4	2817806	n/a	n/a	n/a	n/a	n/a	n/a
2819.356	0.0	nontarget	5	2819356	k	0	34.0	n/a	n/a	14
2821.839	0.0	nontarget	5	2821839	f	0	46.0	n/a	n/a	14
2823.806	0.0	nontarget	5	2823806	y	0	15.0	n/a	n/a	14
2826.189	0.0	nontarget	5	2826189	w	0	40.0	n/a	n/a	14
2828.289	0.0	nontarget	5	2828289	a	0	23.0	n/a	n/a	14
2830.672	0.0	nontarget	5	2830672	z	0	40.0	n/a	n/a	14
2833.172	0.0	nontarget	5	2833172	ä	0	47.0	n/a	n/a	14
2835.288	0.0	target	6	2835288	l	1	24.0	1	0.5126884	14
2835.655	0.5	BAD keypress	2	2835655	n/a	n/a	n/a	n/a	n/a	n/a
2835.905	0.0	keypress	4	2835905	n/a	n/a	n/a	n/a	n/a	n/a
2837.188	0.0	nontarget	5	2837188	v	0	18.0	n/a	n/a	14
2839.638	0.0	target	6	2839638	c	1	44.0	1	0.4185945	14
2839.938	0.5	BAD keypress	2	2839938	n/a	n/a	n/a	n/a	n/a	n/a
2840.188	0.0	keypress	4	2840188	n/a	n/a	n/a	n/a	n/a	n/a
2841.738	0.0	nontarget	5	2841738	i	0	34.0	n/a	n/a	14
2843.971	0.0	nontarget	5	2843971	t	0	31.0	n/a	n/a	14
2846.005	0.0	nontarget	5	2846005	ß	0	19.0	n/a	n/a	14
2848.155	0.0	nontarget	5	2848155	ü	0	26.0	n/a	n/a	14
2850.154	0.0	nontarget	5	2850154	h	0	17.0	n/a	n/a	14
2852.554	0.0	nontarget	5	2852554	p	0	41.0	n/a	n/a	14
2853.654	56.46500000000015	BAD_break	3	2853654	n/a	n/a	n/a	n/a	n/a	n/a
