onset	duration	trial_type	value	sample	stimulus	target	blank_jitter_frames	accuracy	response_time	block
0.0	161.402	BAD_break	2	0	n/a	n/a	n/a	n/a	n/a	n/a
161.652	0.5	BAD keypress	1	161652	n/a	n/a	n/a	n/a	n/a	n/a
161.902	0.0	keypress	3	161902	n/a	n/a	n/a	n/a	n/a	n/a
163.619	0.0	nontarget	4	163619	i	0	45.0	n/a	n/a	1
165.852	0.0	nontarget	4	165852	t	0	31.0	n/a	n/a	1
167.919	0.0	nontarget	4	167919	h	0	21.0	n/a	n/a	1
170.402	0.0	nontarget	4	170402	y	0	46.0	n/a	n/a	1
172.502	0.0	nontarget	4	172502	c	0	23.0	n/a	n/a	1
174.618	0.0	nontarget	4	174618	o	0	24.0	n/a	n/a	1
176.835	0.0	nontarget	4	176835	f	0	30.0	n/a	n/a	1
179.085	0.0	nontarget	4	179085	ß	0	32.0	n/a	n/a	1
181.585	0.0	nontarget	4	181585	ö	0	47.0	n/a	n/a	1
184.135	0.0	nontarget	4	184135	g	0	50.0	n/a	n/a	1
186.301	0.0	nontarget	4	186301	z	0	27.0	n/a	n/a	1
188.634	0.0	nontarget	4	188634	k	0	37.0	n/a	n/a	1
191.184	0.0	nontarget	4	191184	ü	0	50.0	n/a	n/a	1
193.451	0.0	target	5	193451	v	1	33.0	1	0.4297877	1
193.734	0.5	BAD keypress	1	193734	n/a	n/a	n/a	n/a	n/a	n/a
193.984	0.0	keypress	3	193984	n/a	n/a	n/a	n/a	n/a	n/a
195.784	0.0	nontarget	4	195784	j	0	49.0	n/a	n/a	1
197.751	0.0	nontarget	4	197751	u	0	15.0	n/a	n/a	1
199.801	0.0	nontarget	4	199801	e	0	20.0	n/a	n/a	1
202.117	0.0	nontarget	4	202117	i	0	36.0	n/a	n/a	1
204.1	0.0	nontarget	4	204100	j	0	16.0	n/a	n/a	1
206.55	0.0	nontarget	4	206550	l	0	44.0	n/a	n/a	1
208.967	0.0	nontarget	4	208967	q	0	42.0	n/a	n/a	1
211.45	0.0	nontarget	4	211450	r	0	46.0	n/a	n/a	1
213.8	0.0	target	5	213800	ü	1	38.0	1	0.495298	1
214.183	0.5	BAD keypress	1	214183	n/a	n/a	n/a	n/a	n/a	n/a
214.433	0.0	keypress	3	214433	n/a	n/a	n/a	n/a	n/a	n/a
215.717	0.0	nontarget	4	215717	u	0	18.0	n/a	n/a	1
217.767	0.0	nontarget	4	217767	e	0	20.0	n/a	n/a	1
219.916	0.0	target	5	219916	l	1	26.0	1	0.5065682	1
220.317	0.5	BAD keypress	1	220317	n/a	n/a	n/a	n/a	n/a	n/a
220.567	0.0	keypress	3	220567	n/a	n/a	n/a	n/a	n/a	n/a
222.383	0.0	nontarget	4	222383	ß	0	50.0	n/a	n/a	1
224.333	0.0	nontarget	4	224333	r	0	14.0	n/a	n/a	1
226.866	0.0	nontarget	4	226866	c	0	49.0	n/a	n/a	1
229.066	0.0	nontarget	4	229066	f	0	29.0	n/a	n/a	1
231.466	0.0	nontarget	4	231466	q	0	41.0	n/a	n/a	1
233.932	0.0	nontarget	4	233932	e	0	45.0	n/a	n/a	1
236.232	0.0	nontarget	4	236232	m	0	35.0	n/a	n/a	1
238.682	0.0	nontarget	4	238682	s	0	44.0	n/a	n/a	1
241.132	0.0	target	5	241132	w	1	44.0	1	0.3933355	1
241.432	0.5	BAD keypress	1	241432	n/a	n/a	n/a	n/a	n/a	n/a
241.682	0.0	keypress	3	241682	n/a	n/a	n/a	n/a	n/a	n/a
242.982	0.0	nontarget	4	242982	t	0	19.0	n/a	n/a	1
245.265	0.0	target	5	245265	q	1	34.0	1	0.4839183	1
245.615	0.5	BAD keypress	1	245615	n/a	n/a	n/a	n/a	n/a	n/a
245.865	0.0	keypress	3	245865	n/a	n/a	n/a	n/a	n/a	n/a
247.115	0.0	nontarget	4	247115	o	0	16.0	n/a	n/a	1
249.082	0.0	nontarget	4	249082	d	0	15.0	n/a	n/a	1
251.148	0.0	target	5	251148	a	1	21.0	1	0.4884442	1
251.498	0.5	BAD keypress	1	251498	n/a	n/a	n/a	n/a	n/a	n/a
251.748	0.0	keypress	3	251748	n/a	n/a	n/a	n/a	n/a	n/a
253.265	0.0	nontarget	4	253265	v	0	32.0	n/a	n/a	1
255.782	0.0	target	5	255782	d	1	48.0	1	0.3989165	1
256.065	0.5	BAD keypress	1	256065	n/a	n/a	n/a	n/a	n/a	n/a
256.315	0.0	keypress	3	256315	n/a	n/a	n/a	n/a	n/a	n/a
257.831	0.0	nontarget	4	257831	y	0	32.0	n/a	n/a	1
260.031	0.0	nontarget	4	260031	l	0	29.0	n/a	n/a	1
262.165	0.0	nontarget	4	262165	f	0	25.0	n/a	n/a	1
264.381	0.0	nontarget	4	264381	ä	0	30.0	n/a	n/a	1
266.931	0.0	nontarget	4	266931	i	0	50.0	n/a	n/a	1
269.014	0.0	nontarget	4	269014	d	0	22.0	n/a	n/a	1
271.048	0.0	target	5	271048	b	1	19.0	1	0.4600579	1
271.414	0.5	BAD keypress	1	271414	n/a	n/a	n/a	n/a	n/a	n/a
271.664	0.0	keypress	3	271664	n/a	n/a	n/a	n/a	n/a	n/a
273.231	0.0	nontarget	4	273231	l	0	35.0	n/a	n/a	1
275.231	0.0	nontarget	4	275231	i	0	17.0	n/a	n/a	1
277.564	0.0	nontarget	4	277564	f	0	37.0	n/a	n/a	1
279.68	0.0	nontarget	4	279680	z	0	24.0	n/a	n/a	1
281.664	0.0	nontarget	4	281664	w	0	16.0	n/a	n/a	1
283.93	0.0	target	5	283930	h	1	33.0	1	0.4243842	1
284.247	0.5	BAD keypress	1	284247	n/a	n/a	n/a	n/a	n/a	n/a
284.497	0.0	keypress	3	284497	n/a	n/a	n/a	n/a	n/a	n/a
285.997	0.0	nontarget	4	285997	ö	0	31.0	n/a	n/a	1
288.03	0.0	nontarget	4	288030	y	0	19.0	n/a	n/a	1
290.23	0.0	nontarget	4	290230	n	0	29.0	n/a	n/a	1
292.48	0.0	nontarget	4	292480	d	0	32.0	n/a	n/a	1
294.646	0.0	nontarget	4	294646	m	0	27.0	n/a	n/a	1
296.696	0.0	target	5	296696	k	1	20.0	1	0.4573852	1
297.046	0.5	BAD keypress	1	297046	n/a	n/a	n/a	n/a	n/a	n/a
297.296	0.0	keypress	3	297296	n/a	n/a	n/a	n/a	n/a	n/a
298.663	0.0	nontarget	4	298663	b	0	22.0	n/a	n/a	1
301.13	0.0	target	5	301130	g	1	45.0	1	0.5039229	1
301.513	0.5	BAD keypress	1	301513	n/a	n/a	n/a	n/a	n/a	n/a
301.763	0.0	keypress	3	301763	n/a	n/a	n/a	n/a	n/a	n/a
303.063	0.0	nontarget	4	303063	ü	0	19.0	n/a	n/a	1
305.546	0.0	target	5	305546	t	1	46.0	1	0.5031997	1
305.896	0.5	BAD keypress	1	305896	n/a	n/a	n/a	n/a	n/a	n/a
306.146	0.0	keypress	3	306146	n/a	n/a	n/a	n/a	n/a	n/a
307.963	0.0	target	5	307963	e	1	50.0	1	0.4544464	1
308.313	0.5	BAD keypress	1	308313	n/a	n/a	n/a	n/a	n/a	n/a
308.563	0.0	keypress	3	308563	n/a	n/a	n/a	n/a	n/a	n/a
309.663	10.231999999999973	BAD_break	2	309663	n/a	n/a	n/a	n/a	n/a	n/a
320.145	0.5	BAD keypress	1	320145	n/a	n/a	n/a	n/a	n/a	n/a
320.395	0.0	keypress	3	320395	n/a	n/a	n/a	n/a	n/a	n/a
322.012	0.0	nontarget	4	322012	b	0	39.0	n/a	n/a	2
324.029	0.0	nontarget	4	324029	o	0	18.0	n/a	n/a	2
326.428	0.0	target	5	326428	n	1	41.0	1	0.4193583	2
326.728	0.5	BAD keypress	1	326728	n/a	n/a	n/a	n/a	n/a	n/a
326.978	0.0	keypress	3	326978	n/a	n/a	n/a	n/a	n/a	n/a
328.278	0.0	nontarget	4	328278	s	0	19.0	n/a	n/a	2
330.495	0.0	nontarget	4	330495	u	0	30.0	n/a	n/a	2
333.045	0.0	nontarget	4	333045	k	0	50.0	n/a	n/a	2
335.161	0.0	nontarget	4	335161	c	0	24.0	n/a	n/a	2
337.261	0.0	nontarget	4	337261	n	0	23.0	n/a	n/a	2
339.478	0.0	nontarget	4	339478	q	0	30.0	n/a	n/a	2
341.744	0.0	nontarget	4	341744	e	0	33.0	n/a	n/a	2
344.094	0.0	target	5	344094	d	1	38.0	1	0.4003194	2
344.394	0.5	BAD keypress	1	344394	n/a	n/a	n/a	n/a	n/a	n/a
344.644	0.0	keypress	3	344644	n/a	n/a	n/a	n/a	n/a	n/a
346.244	0.0	nontarget	4	346244	s	0	37.0	n/a	n/a	2
348.777	0.0	nontarget	4	348777	c	0	49.0	n/a	n/a	2
350.727	0.0	nontarget	4	350727	f	0	14.0	n/a	n/a	2
353.027	0.0	nontarget	4	353027	y	0	35.0	n/a	n/a	2
355.277	0.0	nontarget	4	355277	a	0	32.0	n/a	n/a	2
357.427	0.0	target	5	357427	g	1	26.0	1	0.378632	2
357.694	0.5	BAD keypress	1	357694	n/a	n/a	n/a	n/a	n/a	n/a
357.944	0.0	keypress	3	357944	n/a	n/a	n/a	n/a	n/a	n/a
359.394	0.0	target	5	359394	u	1	28.0	1	0.5558241	2
359.81	0.5	BAD keypress	1	359810	n/a	n/a	n/a	n/a	n/a	n/a
360.06	0.0	keypress	3	360060	n/a	n/a	n/a	n/a	n/a	n/a
361.494	0.0	nontarget	4	361494	f	0	27.0	n/a	n/a	2
363.927	0.0	nontarget	4	363927	l	0	43.0	n/a	n/a	2
366.21	0.0	nontarget	4	366210	ß	0	34.0	n/a	n/a	2
368.31	0.0	nontarget	4	368310	v	0	23.0	n/a	n/a	2
370.493	0.0	nontarget	4	370493	a	0	25.0	n/a	n/a	2
372.443	0.0	target	5	372443	m	1	14.0	1	0.433707	2
372.71	0.5	BAD keypress	1	372710	n/a	n/a	n/a	n/a	n/a	n/a
372.96	0.0	keypress	3	372960	n/a	n/a	n/a	n/a	n/a	n/a
374.21	0.0	nontarget	4	374210	g	0	16.0	n/a	n/a	2
376.443	0.0	target	5	376443	i	1	31.0	1	0.4174495	2
376.726	0.5	BAD keypress	1	376726	n/a	n/a	n/a	n/a	n/a	n/a
376.976	0.0	keypress	3	376976	n/a	n/a	n/a	n/a	n/a	n/a
378.476	0.0	nontarget	4	378476	n	0	31.0	n/a	n/a	2
380.626	0.0	nontarget	4	380626	y	0	26.0	n/a	n/a	2
382.993	0.0	nontarget	4	382993	ü	0	39.0	n/a	n/a	2
385.442	0.0	nontarget	4	385442	e	0	44.0	n/a	n/a	2
387.759	0.0	nontarget	4	387759	g	0	36.0	n/a	n/a	2
389.909	0.0	nontarget	4	389909	ß	0	26.0	n/a	n/a	2
392.009	0.0	nontarget	4	392009	v	0	23.0	n/a	n/a	2
394.375	0.0	nontarget	4	394375	p	0	39.0	n/a	n/a	2
396.859	0.0	nontarget	4	396859	o	0	46.0	n/a	n/a	2
399.075	0.0	nontarget	4	399075	k	0	30.0	n/a	n/a	2
401.275	0.0	nontarget	4	401275	i	0	29.0	n/a	n/a	2
403.825	0.0	nontarget	4	403825	ß	0	50.0	n/a	n/a	2
405.975	0.0	nontarget	4	405975	y	0	26.0	n/a	n/a	2
408.208	0.0	nontarget	4	408208	u	0	31.0	n/a	n/a	2
410.441	0.0	nontarget	4	410441	d	0	31.0	n/a	n/a	2
412.841	0.0	nontarget	4	412841	r	0	41.0	n/a	n/a	2
415.125	0.0	nontarget	4	415125	b	0	34.0	n/a	n/a	2
417.091	0.0	nontarget	4	417091	z	0	15.0	n/a	n/a	2
419.641	0.0	nontarget	4	419641	ü	0	50.0	n/a	n/a	2
421.891	0.0	nontarget	4	421891	o	0	32.0	n/a	n/a	2
423.857	0.0	nontarget	4	423857	x	0	15.0	n/a	n/a	2
426.324	0.0	nontarget	4	426324	v	0	45.0	n/a	n/a	2
428.524	0.0	target	5	428524	s	1	29.0	1	0.4769662	2
428.891	0.5	BAD keypress	1	428891	n/a	n/a	n/a	n/a	n/a	n/a
429.141	0.0	keypress	3	429141	n/a	n/a	n/a	n/a	n/a	n/a
430.824	0.0	nontarget	4	430824	z	0	42.0	n/a	n/a	2
433.157	0.0	target	5	433157	ä	1	37.0	1	0.5155042	2
433.557	0.5	BAD keypress	1	433557	n/a	n/a	n/a	n/a	n/a	n/a
433.807	0.0	keypress	3	433807	n/a	n/a	n/a	n/a	n/a	n/a
435.34	0.0	nontarget	4	435340	ü	0	33.0	n/a	n/a	2
437.507	0.0	nontarget	4	437507	x	0	27.0	n/a	n/a	2
439.657	0.0	nontarget	4	439657	i	0	26.0	n/a	n/a	2
441.757	0.0	nontarget	4	441757	c	0	23.0	n/a	n/a	2
443.773	0.0	target	5	443773	t	1	18.0	1	0.4745718	2
444.14	0.5	BAD keypress	1	444140	n/a	n/a	n/a	n/a	n/a	n/a
444.39	0.0	keypress	3	444390	n/a	n/a	n/a	n/a	n/a	n/a
445.873	0.0	target	5	445873	o	1	30.0	1	0.5505724	2
446.34	0.5	BAD keypress	1	446340	n/a	n/a	n/a	n/a	n/a	n/a
446.59	0.0	keypress	3	446590	n/a	n/a	n/a	n/a	n/a	n/a
448.39	0.0	nontarget	4	448390	l	0	49.0	n/a	n/a	2
450.373	0.0	nontarget	4	450373	o	0	16.0	n/a	n/a	2
452.89	0.0	nontarget	4	452890	u	0	48.0	n/a	n/a	2
454.889	0.0	nontarget	4	454889	f	0	17.0	n/a	n/a	2
457.439	0.0	nontarget	4	457439	g	0	50.0	n/a	n/a	2
459.756	0.0	nontarget	4	459756	v	0	36.0	n/a	n/a	2
462.206	0.0	nontarget	4	462206	ä	0	44.0	n/a	n/a	2
464.506	0.0	target	5	464506	p	1	35.0	1	0.4447232	2
464.839	0.5	BAD keypress	1	464839	n/a	n/a	n/a	n/a	n/a	n/a
465.089	0.0	keypress	3	465089	n/a	n/a	n/a	n/a	n/a	n/a
466.406	0.0	nontarget	4	466406	d	0	20.0	n/a	n/a	2
467.506	10.215999999999951	BAD_break	2	467506	n/a	n/a	n/a	n/a	n/a	n/a
477.972	0.5	BAD keypress	1	477972	n/a	n/a	n/a	n/a	n/a	n/a
478.222	0.0	keypress	3	478222	n/a	n/a	n/a	n/a	n/a	n/a
479.705	0.0	nontarget	4	479705	ü	0	31.0	n/a	n/a	3
482.122	0.0	nontarget	4	482122	a	0	42.0	n/a	n/a	3
484.588	0.0	nontarget	4	484588	y	0	45.0	n/a	n/a	3
487.088	0.0	nontarget	4	487088	w	0	47.0	n/a	n/a	3
489.155	0.0	nontarget	4	489155	i	0	21.0	n/a	n/a	3
491.688	0.0	nontarget	4	491688	r	0	49.0	n/a	n/a	3
493.654	0.0	nontarget	4	493654	ü	0	15.0	n/a	n/a	3
495.904	0.0	nontarget	4	495904	w	0	32.0	n/a	n/a	3
498.221	0.0	nontarget	4	498221	b	0	36.0	n/a	n/a	3
500.671	0.0	nontarget	4	500671	r	0	44.0	n/a	n/a	3
502.921	0.0	target	5	502921	ä	1	32.0	1	0.4430522	3
503.271	0.5	BAD keypress	1	503271	n/a	n/a	n/a	n/a	n/a	n/a
503.521	0.0	keypress	3	503521	n/a	n/a	n/a	n/a	n/a	n/a
504.904	0.0	nontarget	4	504904	e	0	24.0	n/a	n/a	3
507.454	0.0	target	5	507454	g	1	50.0	1	0.3737403	3
507.704	0.5	BAD keypress	1	507704	n/a	n/a	n/a	n/a	n/a	n/a
507.954	0.0	keypress	3	507954	n/a	n/a	n/a	n/a	n/a	n/a
509.337	0.0	nontarget	4	509337	x	0	24.0	n/a	n/a	3
511.787	0.0	nontarget	4	511787	d	0	44.0	n/a	n/a	3
514.22	0.0	nontarget	4	514220	e	0	43.0	n/a	n/a	3
516.353	0.0	nontarget	4	516353	o	0	25.0	n/a	n/a	3
518.437	0.0	nontarget	4	518437	z	0	22.0	n/a	n/a	3
520.47	0.0	nontarget	4	520470	t	0	19.0	n/a	n/a	3
522.836	0.0	nontarget	4	522836	y	0	39.0	n/a	n/a	3
525.37	0.0	nontarget	4	525370	ö	0	49.0	n/a	n/a	3
527.853	0.0	nontarget	4	527853	h	0	46.0	n/a	n/a	3
529.903	0.0	target	5	529903	o	1	20.0	1	0.4511454	3
530.236	0.5	BAD keypress	1	530236	n/a	n/a	n/a	n/a	n/a	n/a
530.486	0.0	keypress	3	530486	n/a	n/a	n/a	n/a	n/a	n/a
532.303	0.0	target	5	532303	b	1	50.0	1	0.4991895	3
532.653	0.5	BAD keypress	1	532653	n/a	n/a	n/a	n/a	n/a	n/a
532.903	0.0	keypress	3	532903	n/a	n/a	n/a	n/a	n/a	n/a
534.653	0.0	nontarget	4	534653	b	0	46.0	n/a	n/a	3
536.902	0.0	target	5	536902	u	1	32.0	1	0.4750073	3
537.236	0.5	BAD keypress	1	537236	n/a	n/a	n/a	n/a	n/a	n/a
537.486	0.0	keypress	3	537486	n/a	n/a	n/a	n/a	n/a	n/a
538.952	0.0	nontarget	4	538952	ä	0	29.0	n/a	n/a	3
541.002	0.0	target	5	541002	i	1	20.0	1	0.4549344	3
541.319	0.5	BAD keypress	1	541319	n/a	n/a	n/a	n/a	n/a	n/a
541.569	0.0	keypress	3	541569	n/a	n/a	n/a	n/a	n/a	n/a
543.052	0.0	nontarget	4	543052	q	0	29.0	n/a	n/a	3
545.519	0.0	target	5	545519	m	1	45.0	1	0.3861716	3
545.769	0.5	BAD keypress	1	545769	n/a	n/a	n/a	n/a	n/a	n/a
546.019	0.0	keypress	3	546019	n/a	n/a	n/a	n/a	n/a	n/a
547.519	0.0	nontarget	4	547519	k	0	31.0	n/a	n/a	3
549.835	0.0	nontarget	4	549835	z	0	36.0	n/a	n/a	3
552.269	0.0	nontarget	4	552269	t	0	43.0	n/a	n/a	3
554.502	0.0	nontarget	4	554502	f	0	31.0	n/a	n/a	3
556.652	0.0	nontarget	4	556652	a	0	26.0	n/a	n/a	3
558.652	0.0	nontarget	4	558652	u	0	17.0	n/a	n/a	3
560.985	0.0	nontarget	4	560985	w	0	37.0	n/a	n/a	3
563.168	0.0	nontarget	4	563168	i	0	28.0	n/a	n/a	3
565.385	0.0	nontarget	4	565385	h	0	30.0	n/a	n/a	3
567.601	0.0	target	5	567601	p	1	30.0	1	0.4462939	3
567.918	0.5	BAD keypress	1	567918	n/a	n/a	n/a	n/a	n/a	n/a
568.168	0.0	keypress	3	568168	n/a	n/a	n/a	n/a	n/a	n/a
569.718	0.0	nontarget	4	569718	z	0	34.0	n/a	n/a	3
571.684	0.0	nontarget	4	571684	p	0	15.0	n/a	n/a	3
573.634	0.0	nontarget	4	573634	e	0	14.0	n/a	n/a	3
576.034	0.0	nontarget	4	576034	n	0	41.0	n/a	n/a	3
578.451	0.0	nontarget	4	578451	f	0	42.0	n/a	n/a	3
580.867	0.0	target	5	580867	j	1	42.0	1	0.4272303	3
581.217	0.5	BAD keypress	1	581217	n/a	n/a	n/a	n/a	n/a	n/a
581.467	0.0	keypress	3	581467	n/a	n/a	n/a	n/a	n/a	n/a
583.134	0.0	nontarget	4	583134	r	0	41.0	n/a	n/a	3
585.317	0.0	nontarget	4	585317	ä	0	28.0	n/a	n/a	3
587.467	0.0	nontarget	4	587467	j	0	26.0	n/a	n/a	3
589.917	0.0	nontarget	4	589917	b	0	44.0	n/a	n/a	3
592.417	0.0	nontarget	4	592417	c	0	47.0	n/a	n/a	3
594.633	0.0	nontarget	4	594633	d	0	30.0	n/a	n/a	3
596.667	0.0	nontarget	4	596667	o	0	19.0	n/a	n/a	3
598.833	0.0	target	5	598833	a	1	27.0	1	0.4762369	3
599.217	0.5	BAD keypress	1	599217	n/a	n/a	n/a	n/a	n/a	n/a
599.467	0.0	keypress	3	599467	n/a	n/a	n/a	n/a	n/a	n/a
600.916	0.0	nontarget	4	600916	h	0	28.0	n/a	n/a	3
603.0	0.0	nontarget	4	603000	l	0	22.0	n/a	n/a	3
605.55	0.0	nontarget	4	605550	a	0	50.0	n/a	n/a	3
607.566	0.0	nontarget	4	607566	i	0	18.0	n/a	n/a	3
609.949	0.0	nontarget	4	609949	ß	0	40.0	n/a	n/a	3
612.366	0.0	nontarget	4	612366	q	0	42.0	n/a	n/a	3
614.849	0.0	target	5	614849	w	1	46.0	1	0.4910965	3
615.199	0.5	BAD keypress	1	615199	n/a	n/a	n/a	n/a	n/a	n/a
615.449	0.0	keypress	3	615449	n/a	n/a	n/a	n/a	n/a	n/a
617.249	0.0	nontarget	4	617249	x	0	49.0	n/a	n/a	3
619.449	0.0	target	5	619449	ä	1	29.0	1	0.4190211	3
619.699	0.5	BAD keypress	1	619699	n/a	n/a	n/a	n/a	n/a	n/a
619.949	0.0	keypress	3	619949	n/a	n/a	n/a	n/a	n/a	n/a
621.499	0.0	nontarget	4	621499	e	0	34.0	n/a	n/a	3
624.015	0.0	target	5	624015	ü	1	48.0	1	0.4762835	3
624.365	0.5	BAD keypress	1	624365	n/a	n/a	n/a	n/a	n/a	n/a
624.615	0.0	keypress	3	624615	n/a	n/a	n/a	n/a	n/a	n/a
626.115	0.0	target	5	626115	v	1	31.0	1	0.4562287	3
626.449	0.5	BAD keypress	1	626449	n/a	n/a	n/a	n/a	n/a	n/a
626.699	0.0	keypress	3	626699	n/a	n/a	n/a	n/a	n/a	n/a
627.799	24.53200000000004	BAD_break	2	627799	n/a	n/a	n/a	n/a	n/a	n/a
652.831	0.0	target	5	652831	r	1	36.0	1	0.4428503	4
653.164	0.5	BAD keypress	1	653164	n/a	n/a	n/a	n/a	n/a	n/a
653.414	0.0	keypress	3	653414	n/a	n/a	n/a	n/a	n/a	n/a
654.697	0.0	target	5	654697	t	1	17.0	1	0.4481709	4
655.047	0.5	BAD keypress	1	655047	n/a	n/a	n/a	n/a	n/a	n/a
655.297	0.0	keypress	3	655297	n/a	n/a	n/a	n/a	n/a	n/a
656.631	0.0	target	5	656631	x	1	21.0	1	0.3388504	4
656.864	0.5	BAD keypress	1	656864	n/a	n/a	n/a	n/a	n/a	n/a
657.114	0.0	keypress	3	657114	n/a	n/a	n/a	n/a	n/a	n/a
658.497	0.0	nontarget	4	658497	q	0	23.0	n/a	n/a	4
660.814	0.0	nontarget	4	660814	a	0	36.0	n/a	n/a	4
662.997	0.0	nontarget	4	662997	r	0	28.0	n/a	n/a	4
664.98	0.0	nontarget	4	664980	ö	0	16.0	n/a	n/a	4
667.247	0.0	nontarget	4	667247	ü	0	33.0	n/a	n/a	4
669.413	0.0	nontarget	4	669413	m	0	27.0	n/a	n/a	4
671.43	0.0	target	5	671430	q	1	18.0	1	0.4024902	4
671.697	0.5	BAD keypress	1	671697	n/a	n/a	n/a	n/a	n/a	n/a
671.947	0.0	keypress	3	671947	n/a	n/a	n/a	n/a	n/a	n/a
673.697	0.0	nontarget	4	673697	x	0	46.0	n/a	n/a	4
676.213	0.0	nontarget	4	676213	h	0	48.0	n/a	n/a	4
678.746	0.0	nontarget	4	678746	l	0	49.0	n/a	n/a	4
681.096	0.0	target	5	681096	s	1	38.0	1	0.351381	4
681.33	0.5	BAD keypress	1	681330	n/a	n/a	n/a	n/a	n/a	n/a
681.58	0.0	keypress	3	681580	n/a	n/a	n/a	n/a	n/a	n/a
683.146	0.0	nontarget	4	683146	s	0	35.0	n/a	n/a	4
685.563	0.0	nontarget	4	685563	j	0	42.0	n/a	n/a	4
687.746	0.0	nontarget	4	687746	k	0	28.0	n/a	n/a	4
690.162	0.0	nontarget	4	690162	q	0	42.0	n/a	n/a	4
692.412	0.0	nontarget	4	692412	ö	0	32.0	n/a	n/a	4
694.629	0.0	nontarget	4	694629	m	0	30.0	n/a	n/a	4
696.696	0.0	nontarget	4	696696	w	0	21.0	n/a	n/a	4
698.779	0.0	target	5	698779	g	1	22.0	1	0.39583	4
699.062	0.5	BAD keypress	1	699062	n/a	n/a	n/a	n/a	n/a	n/a
699.312	0.0	keypress	3	699312	n/a	n/a	n/a	n/a	n/a	n/a
701.029	0.0	nontarget	4	701029	ä	0	44.0	n/a	n/a	4
703.345	0.0	nontarget	4	703345	ß	0	36.0	n/a	n/a	4
705.878	0.0	nontarget	4	705878	s	0	49.0	n/a	n/a	4
708.195	0.0	nontarget	4	708195	d	0	36.0	n/a	n/a	4
710.212	0.0	nontarget	4	710212	o	0	18.0	n/a	n/a	4
712.245	0.0	nontarget	4	712245	v	0	19.0	n/a	n/a	4
714.661	0.0	nontarget	4	714661	k	0	42.0	n/a	n/a	4
716.778	0.0	nontarget	4	716778	a	0	24.0	n/a	n/a	4
719.045	0.0	target	5	719045	n	1	33.0	1	0.4008011	4
719.345	0.5	BAD keypress	1	719345	n/a	n/a	n/a	n/a	n/a	n/a
719.595	0.0	keypress	3	719595	n/a	n/a	n/a	n/a	n/a	n/a
721.128	0.0	nontarget	4	721128	p	0	33.0	n/a	n/a	4
723.211	0.0	nontarget	4	723211	x	0	22.0	n/a	n/a	4
725.178	0.0	nontarget	4	725178	ß	0	15.0	n/a	n/a	4
727.578	0.0	nontarget	4	727578	z	0	41.0	n/a	n/a	4
730.061	0.0	target	5	730061	c	1	46.0	1	0.3916576	4
730.344	0.5	BAD keypress	1	730344	n/a	n/a	n/a	n/a	n/a	n/a
730.594	0.0	keypress	3	730594	n/a	n/a	n/a	n/a	n/a	n/a
732.327	0.0	nontarget	4	732327	n	0	45.0	n/a	n/a	4
734.527	0.0	nontarget	4	734527	v	0	29.0	n/a	n/a	4
736.81	0.0	nontarget	4	736810	b	0	34.0	n/a	n/a	4
739.094	0.0	nontarget	4	739094	m	0	34.0	n/a	n/a	4
741.444	0.0	nontarget	4	741444	f	0	38.0	n/a	n/a	4
743.443	0.0	target	5	743443	m	1	17.0	1	0.4799717	4
743.794	0.5	BAD keypress	1	743794	n/a	n/a	n/a	n/a	n/a	n/a
744.044	0.0	keypress	3	744044	n/a	n/a	n/a	n/a	n/a	n/a
745.343	0.0	nontarget	4	745343	h	0	19.0	n/a	n/a	4
747.727	0.0	nontarget	4	747727	o	0	40.0	n/a	n/a	4
749.793	0.0	nontarget	4	749793	a	0	21.0	n/a	n/a	4
751.943	0.0	nontarget	4	751943	s	0	26.0	n/a	n/a	4
754.26	0.0	nontarget	4	754260	j	0	36.0	n/a	n/a	4
756.51	0.0	nontarget	4	756510	t	0	32.0	n/a	n/a	4
758.793	0.0	nontarget	4	758793	c	0	34.0	n/a	n/a	4
761.059	0.0	nontarget	4	761059	u	0	33.0	n/a	n/a	4
763.176	0.0	nontarget	4	763176	b	0	24.0	n/a	n/a	4
765.276	0.0	nontarget	4	765276	l	0	23.0	n/a	n/a	4
767.792	0.0	nontarget	4	767792	p	0	48.0	n/a	n/a	4
770.026	0.0	target	5	770026	ü	1	31.0	1	0.424035	4
770.342	0.5	BAD keypress	1	770342	n/a	n/a	n/a	n/a	n/a	n/a
770.592	0.0	keypress	3	770592	n/a	n/a	n/a	n/a	n/a	n/a
772.292	0.0	nontarget	4	772292	q	0	43.0	n/a	n/a	4
774.659	0.0	nontarget	4	774659	ä	0	39.0	n/a	n/a	4
776.992	0.0	nontarget	4	776992	r	0	37.0	n/a	n/a	4
779.425	0.0	target	5	779425	m	1	43.0	1	0.3998607	4
779.709	0.5	BAD keypress	1	779709	n/a	n/a	n/a	n/a	n/a	n/a
779.959	0.0	keypress	3	779959	n/a	n/a	n/a	n/a	n/a	n/a
781.259	0.0	target	5	781259	a	1	19.0	1	0.5825002	4
781.692	0.5	BAD keypress	1	781692	n/a	n/a	n/a	n/a	n/a	n/a
781.942	0.0	keypress	3	781942	n/a	n/a	n/a	n/a	n/a	n/a
783.225	0.0	nontarget	4	783225	ß	0	18.0	n/a	n/a	4
785.258	0.0	nontarget	4	785258	l	0	19.0	n/a	n/a	4
787.708	0.0	nontarget	4	787708	m	0	44.0	n/a	n/a	4
789.875	0.0	nontarget	4	789875	ä	0	27.0	n/a	n/a	4
792.225	0.0	nontarget	4	792225	c	0	38.0	n/a	n/a	4
794.341	0.0	target	5	794341	j	1	24.0	1	0.4268017	4
794.658	0.5	BAD keypress	1	794658	n/a	n/a	n/a	n/a	n/a	n/a
794.908	0.0	keypress	3	794908	n/a	n/a	n/a	n/a	n/a	n/a
796.608	0.0	nontarget	4	796608	l	0	43.0	n/a	n/a	4
797.708	23.899	BAD_break	2	797708	n/a	n/a	n/a	n/a	n/a	n/a
821.857	0.5	BAD keypress	1	821857	n/a	n/a	n/a	n/a	n/a	n/a
822.107	0.0	keypress	3	822107	n/a	n/a	n/a	n/a	n/a	n/a
823.49	0.0	target	5	823490	c	1	25.0	1	0.5241126	5
823.89	0.5	BAD keypress	1	823890	n/a	n/a	n/a	n/a	n/a	n/a
824.14	0.0	keypress	3	824140	n/a	n/a	n/a	n/a	n/a	n/a
825.79	0.0	nontarget	4	825790	ä	0	39.0	n/a	n/a	5
828.323	0.0	nontarget	4	828323	h	0	49.0	n/a	n/a	5
830.64	0.0	nontarget	4	830640	f	0	36.0	n/a	n/a	5
832.99	0.0	target	5	832990	f	1	38.0	1	0.383839	5
833.223	0.5	BAD keypress	1	833223	n/a	n/a	n/a	n/a	n/a	n/a
833.473	0.0	keypress	3	833473	n/a	n/a	n/a	n/a	n/a	n/a
835.056	0.0	target	5	835056	x	1	36.0	1	0.4131017	5
835.323	0.5	BAD keypress	1	835323	n/a	n/a	n/a	n/a	n/a	n/a
835.573	0.0	keypress	3	835573	n/a	n/a	n/a	n/a	n/a	n/a
837.256	0.0	nontarget	4	837256	j	0	42.0	n/a	n/a	5
839.673	0.0	nontarget	4	839673	ö	0	42.0	n/a	n/a	5
841.673	0.0	target	5	841673	w	1	17.0	1	0.4203231	5
841.939	0.5	BAD keypress	1	841939	n/a	n/a	n/a	n/a	n/a	n/a
842.189	0.0	keypress	3	842189	n/a	n/a	n/a	n/a	n/a	n/a
843.906	0.0	nontarget	4	843906	ä	0	44.0	n/a	n/a	5
846.056	0.0	nontarget	4	846056	u	0	26.0	n/a	n/a	5
848.422	0.0	nontarget	4	848422	p	0	39.0	n/a	n/a	5
850.472	0.0	nontarget	4	850472	r	0	20.0	n/a	n/a	5
852.622	0.0	nontarget	4	852622	k	0	26.0	n/a	n/a	5
855.055	0.0	nontarget	4	855055	n	0	43.0	n/a	n/a	5
857.089	0.0	nontarget	4	857089	w	0	19.0	n/a	n/a	5
859.105	0.0	nontarget	4	859105	p	0	18.0	n/a	n/a	5
861.455	0.0	nontarget	4	861455	h	0	38.0	n/a	n/a	5
863.488	0.0	nontarget	4	863488	m	0	19.0	n/a	n/a	5
865.772	0.0	nontarget	4	865772	d	0	34.0	n/a	n/a	5
867.971	0.0	nontarget	4	867971	v	0	29.0	n/a	n/a	5
870.205	0.0	nontarget	4	870205	y	0	31.0	n/a	n/a	5
872.188	0.0	nontarget	4	872188	j	0	16.0	n/a	n/a	5
874.404	0.0	nontarget	4	874404	m	0	30.0	n/a	n/a	5
876.804	0.0	nontarget	4	876804	n	0	41.0	n/a	n/a	5
878.888	0.0	nontarget	4	878888	ä	0	22.0	n/a	n/a	5
881.088	0.0	nontarget	4	881088	j	0	29.0	n/a	n/a	5
883.037	0.0	nontarget	4	883037	f	0	14.0	n/a	n/a	5
885.471	0.0	nontarget	4	885471	e	0	43.0	n/a	n/a	5
887.854	0.0	target	5	887854	u	1	40.0	1	0.4598253	5
888.154	0.5	BAD keypress	1	888154	n/a	n/a	n/a	n/a	n/a	n/a
888.404	0.0	keypress	3	888404	n/a	n/a	n/a	n/a	n/a	n/a
889.787	0.0	nontarget	4	889787	g	0	23.0	n/a	n/a	5
892.27	0.0	nontarget	4	892270	d	0	46.0	n/a	n/a	5
894.504	0.0	nontarget	4	894504	q	0	31.0	n/a	n/a	5
896.554	0.0	target	5	896554	z	1	20.0	1	0.495636	5
896.87	0.5	BAD keypress	1	896870	n/a	n/a	n/a	n/a	n/a	n/a
897.12	0.0	keypress	3	897120	n/a	n/a	n/a	n/a	n/a	n/a
898.437	0.0	nontarget	4	898437	f	0	20.0	n/a	n/a	5
900.92	0.0	nontarget	4	900920	h	0	46.0	n/a	n/a	5
903.27	0.0	nontarget	4	903270	p	0	38.0	n/a	n/a	5
905.62	0.0	nontarget	4	905620	i	0	38.0	n/a	n/a	5
908.053	0.0	nontarget	4	908053	ä	0	43.0	n/a	n/a	5
910.603	0.0	target	5	910603	x	1	50.0	1	0.3972735	5
910.853	0.5	BAD keypress	1	910853	n/a	n/a	n/a	n/a	n/a	n/a
911.103	0.0	keypress	3	911103	n/a	n/a	n/a	n/a	n/a	n/a
912.336	0.0	nontarget	4	912336	n	0	15.0	n/a	n/a	5
914.419	0.0	nontarget	4	914419	l	0	22.0	n/a	n/a	5
916.636	0.0	target	5	916636	k	1	30.0	1	0.4278046	5
916.919	0.5	BAD keypress	1	916919	n/a	n/a	n/a	n/a	n/a	n/a
917.169	0.0	keypress	3	917169	n/a	n/a	n/a	n/a	n/a	n/a
918.486	0.0	nontarget	4	918486	k	0	20.0	n/a	n/a	5
920.636	0.0	nontarget	4	920636	ü	0	26.0	n/a	n/a	5
922.769	0.0	nontarget	4	922769	r	0	25.0	n/a	n/a	5
924.919	0.0	nontarget	4	924919	c	0	26.0	n/a	n/a	5
926.969	0.0	nontarget	4	926969	d	0	20.0	n/a	n/a	5
929.402	0.0	nontarget	4	929402	b	0	43.0	n/a	n/a	5
931.402	0.0	nontarget	4	931402	x	0	17.0	n/a	n/a	5
933.752	0.0	nontarget	4	933752	p	0	38.0	n/a	n/a	5
935.818	0.0	nontarget	4	935818	n	0	21.0	n/a	n/a	5
937.785	0.0	nontarget	4	937785	y	0	15.0	n/a	n/a	5
940.318	0.0	target	5	940318	u	1	49.0	1	0.4079127	5
940.585	0.5	BAD keypress	1	940585	n/a	n/a	n/a	n/a	n/a	n/a
940.835	0.0	keypress	3	940835	n/a	n/a	n/a	n/a	n/a	n/a
942.268	0.0	nontarget	4	942268	d	0	27.0	n/a	n/a	5
944.668	0.0	nontarget	4	944668	ü	0	41.0	n/a	n/a	5
946.901	0.0	nontarget	4	946901	t	0	31.0	n/a	n/a	5
949.185	0.0	nontarget	4	949185	j	0	34.0	n/a	n/a	5
951.401	0.0	nontarget	4	951401	v	0	30.0	n/a	n/a	5
953.651	0.0	nontarget	4	953651	ß	0	32.0	n/a	n/a	5
955.801	0.0	nontarget	4	955801	c	0	26.0	n/a	n/a	5
957.768	0.0	nontarget	4	957768	g	0	15.0	n/a	n/a	5
960.234	0.0	target	5	960234	l	1	45.0	1	0.42669	5
960.501	0.5	BAD keypress	1	960501	n/a	n/a	n/a	n/a	n/a	n/a
960.751	0.0	keypress	3	960751	n/a	n/a	n/a	n/a	n/a	n/a
962.317	0.0	nontarget	4	962317	x	0	35.0	n/a	n/a	5
964.501	0.0	nontarget	4	964501	ä	0	28.0	n/a	n/a	5
966.534	0.0	nontarget	4	966534	u	0	19.0	n/a	n/a	5
967.634	14.348999999999933	BAD_break	2	967634	n/a	n/a	n/a	n/a	n/a	n/a
982.233	0.5	BAD keypress	1	982233	n/a	n/a	n/a	n/a	n/a	n/a
982.483	0.0	keypress	3	982483	n/a	n/a	n/a	n/a	n/a	n/a
984.05	0.0	nontarget	4	984050	l	0	36.0	n/a	n/a	6
986.6	0.0	nontarget	4	986600	ß	0	50.0	n/a	n/a	6
988.833	0.0	nontarget	4	988833	c	0	31.0	n/a	n/a	6
991.299	0.0	nontarget	4	991299	ö	0	45.0	n/a	n/a	6
993.383	0.0	nontarget	4	993383	k	0	22.0	n/a	n/a	6
995.483	0.0	nontarget	4	995483	e	0	23.0	n/a	n/a	6
997.499	0.0	nontarget	4	997499	a	0	18.0	n/a	n/a	6
999.816	0.0	nontarget	4	999816	d	0	36.0	n/a	n/a	6
1001.799	0.0	target	5	1001799	r	1	16.0	1	0.3950419	6
1002.049	0.5	BAD keypress	1	1002049	n/a	n/a	n/a	n/a	n/a	n/a
1002.299	0.0	keypress	3	1002299	n/a	n/a	n/a	n/a	n/a	n/a
1003.699	0.0	nontarget	4	1003699	x	0	25.0	n/a	n/a	6
1006.165	0.0	nontarget	4	1006165	o	0	45.0	n/a	n/a	6
1008.149	0.0	nontarget	4	1008149	p	0	16.0	n/a	n/a	6
1010.649	0.0	target	5	1010649	u	1	47.0	1	0.3928357	6
1010.865	0.5	BAD keypress	1	1010865	n/a	n/a	n/a	n/a	n/a	n/a
1011.115	0.0	keypress	3	1011115	n/a	n/a	n/a	n/a	n/a	n/a
1012.698	0.0	nontarget	4	1012698	u	0	36.0	n/a	n/a	6
1015.232	0.0	nontarget	4	1015232	r	0	49.0	n/a	n/a	6
1017.348	0.0	nontarget	4	1017348	p	0	24.0	n/a	n/a	6
1019.632	0.0	target	5	1019632	e	1	34.0	1	0.4173764	6
1019.865	0.5	BAD keypress	1	1019865	n/a	n/a	n/a	n/a	n/a	n/a
1020.115	0.0	keypress	3	1020115	n/a	n/a	n/a	n/a	n/a	n/a
1021.781	0.0	nontarget	4	1021781	b	0	41.0	n/a	n/a	6
1023.831	0.0	nontarget	4	1023831	v	0	20.0	n/a	n/a	6
1025.831	0.0	nontarget	4	1025831	i	0	17.0	n/a	n/a	6
1028.314	0.0	nontarget	4	1028314	a	0	46.0	n/a	n/a	6
1030.264	0.0	nontarget	4	1030264	m	0	14.0	n/a	n/a	6
1032.764	0.0	nontarget	4	1032764	ü	0	47.0	n/a	n/a	6
1034.998	0.0	nontarget	4	1034998	g	0	31.0	n/a	n/a	6
1037.031	0.0	nontarget	4	1037031	t	0	19.0	n/a	n/a	6
1039.581	0.0	target	5	1039581	d	1	50.0	1	0.5148215	6
1039.914	0.5	BAD keypress	1	1039914	n/a	n/a	n/a	n/a	n/a	n/a
1040.164	0.0	keypress	3	1040164	n/a	n/a	n/a	n/a	n/a	n/a
1041.564	0.0	nontarget	4	1041564	f	0	24.0	n/a	n/a	6
1043.73	0.0	nontarget	4	1043730	ä	0	27.0	n/a	n/a	6
1045.864	0.0	nontarget	4	1045864	t	0	25.0	n/a	n/a	6
1048.247	0.0	nontarget	4	1048247	u	0	40.0	n/a	n/a	6
1050.78	0.0	nontarget	4	1050780	ß	0	49.0	n/a	n/a	6
1053.18	0.0	nontarget	4	1053180	o	0	41.0	n/a	n/a	6
1055.147	0.0	target	5	1055147	o	1	15.0	1	0.4836823	6
1055.463	0.5	BAD keypress	1	1055463	n/a	n/a	n/a	n/a	n/a	n/a
1055.713	0.0	keypress	3	1055713	n/a	n/a	n/a	n/a	n/a	n/a
1057.463	0.0	nontarget	4	1057463	u	0	46.0	n/a	n/a	6
1059.996	0.0	nontarget	4	1059996	a	0	49.0	n/a	n/a	6
1061.946	0.0	target	5	1061946	d	1	14.0	1	0.4195014	6
1062.196	0.5	BAD keypress	1	1062196	n/a	n/a	n/a	n/a	n/a	n/a
1062.446	0.0	keypress	3	1062446	n/a	n/a	n/a	n/a	n/a	n/a
1063.696	0.0	nontarget	4	1063696	y	0	15.0	n/a	n/a	6
1066.163	0.0	target	5	1066163	g	1	45.0	1	0.394795	6
1066.38	0.5	BAD keypress	1	1066380	n/a	n/a	n/a	n/a	n/a	n/a
1066.63	0.0	keypress	3	1066630	n/a	n/a	n/a	n/a	n/a	n/a
1067.896	0.0	nontarget	4	1067896	f	0	17.0	n/a	n/a	6
1070.063	0.0	nontarget	4	1070063	t	0	27.0	n/a	n/a	6
1072.613	0.0	nontarget	4	1072613	a	0	50.0	n/a	n/a	6
1074.662	0.0	nontarget	4	1074662	n	0	20.0	n/a	n/a	6
1076.862	0.0	target	5	1076862	z	1	29.0	1	0.462519	6
1077.162	0.5	BAD keypress	1	1077162	n/a	n/a	n/a	n/a	n/a	n/a
1077.412	0.0	keypress	3	1077412	n/a	n/a	n/a	n/a	n/a	n/a
1078.746	0.0	nontarget	4	1078746	y	0	21.0	n/a	n/a	6
1081.179	0.0	nontarget	4	1081179	h	0	43.0	n/a	n/a	6
1083.629	0.0	nontarget	4	1083629	b	0	44.0	n/a	n/a	6
1085.612	0.0	target	5	1085612	l	1	16.0	1	0.4324557	6
1085.862	0.5	BAD keypress	1	1085862	n/a	n/a	n/a	n/a	n/a	n/a
1086.112	0.0	keypress	3	1086112	n/a	n/a	n/a	n/a	n/a	n/a
1087.345	0.0	nontarget	4	1087345	r	0	15.0	n/a	n/a	6
1089.462	0.0	nontarget	4	1089462	g	0	24.0	n/a	n/a	6
1091.412	0.0	nontarget	4	1091412	k	0	14.0	n/a	n/a	6
1093.628	0.0	nontarget	4	1093628	v	0	30.0	n/a	n/a	6
1096.095	0.0	target	5	1096095	s	1	45.0	1	0.3967277	6
1096.312	0.5	BAD keypress	1	1096312	n/a	n/a	n/a	n/a	n/a	n/a
1096.562	0.0	keypress	3	1096562	n/a	n/a	n/a	n/a	n/a	n/a
1098.161	0.0	target	5	1098161	ü	1	37.0	1	0.5059276	6
1098.495	0.5	BAD keypress	1	1098495	n/a	n/a	n/a	n/a	n/a	n/a
1098.745	0.0	keypress	3	1098745	n/a	n/a	n/a	n/a	n/a	n/a
1100.195	0.0	nontarget	4	1100195	ß	0	28.0	n/a	n/a	6
1102.395	0.0	nontarget	4	1102395	d	0	29.0	n/a	n/a	6
1104.678	0.0	nontarget	4	1104678	c	0	34.0	n/a	n/a	6
1106.978	0.0	nontarget	4	1106978	p	0	35.0	n/a	n/a	6
1109.111	0.0	nontarget	4	1109111	e	0	25.0	n/a	n/a	6
1111.461	0.0	nontarget	4	1111461	r	0	38.0	n/a	n/a	6
1113.777	0.0	nontarget	4	1113777	y	0	36.0	n/a	n/a	6
1115.961	0.0	nontarget	4	1115961	d	0	28.0	n/a	n/a	6
1118.144	0.0	nontarget	4	1118144	p	0	28.0	n/a	n/a	6
1120.16	0.0	nontarget	4	1120160	v	0	18.0	n/a	n/a	6
1122.41	0.0	target	5	1122410	v	1	32.0	1	0.3834613	6
1122.627	0.5	BAD keypress	1	1122627	n/a	n/a	n/a	n/a	n/a	n/a
1122.877	0.0	keypress	3	1122877	n/a	n/a	n/a	n/a	n/a	n/a
1124.66	0.0	nontarget	4	1124660	n	0	48.0	n/a	n/a	6
1127.044	0.0	nontarget	4	1127044	z	0	40.0	n/a	n/a	6
1128.144	19.682000000000016	BAD_break	2	1128144	n/a	n/a	n/a	n/a	n/a	n/a
1148.326	0.0	nontarget	4	1148326	u	0	14.0	n/a	n/a	7
1150.776	0.0	nontarget	4	1150776	y	0	44.0	n/a	n/a	7
1153.242	0.0	nontarget	4	1153242	l	0	45.0	n/a	n/a	7
1155.592	0.0	nontarget	4	1155592	c	0	38.0	n/a	n/a	7
1158.042	0.0	nontarget	4	1158042	s	0	44.0	n/a	n/a	7
1160.242	0.0	nontarget	4	1160242	w	0	29.0	n/a	n/a	7
1162.409	0.0	nontarget	4	1162409	a	0	27.0	n/a	n/a	7
1164.659	0.0	nontarget	4	1164659	k	0	32.0	n/a	n/a	7
1166.975	0.0	nontarget	4	1166975	g	0	36.0	n/a	n/a	7
1169.408	0.0	target	5	1169408	t	1	43.0	1	0.3902036	7
1169.675	0.5	BAD keypress	1	1169675	n/a	n/a	n/a	n/a	n/a	n/a
1169.925	0.0	keypress	3	1169925	n/a	n/a	n/a	n/a	n/a	n/a
1171.708	0.0	nontarget	4	1171708	x	0	48.0	n/a	n/a	7
1173.742	0.0	nontarget	4	1173742	k	0	19.0	n/a	n/a	7
1175.891	0.0	nontarget	4	1175891	b	0	26.0	n/a	n/a	7
1178.141	0.0	nontarget	4	1178141	s	0	32.0	n/a	n/a	7
1180.491	0.0	nontarget	4	1180491	e	0	38.0	n/a	n/a	7
1182.908	0.0	nontarget	4	1182908	ß	0	42.0	n/a	n/a	7
1185.091	0.0	nontarget	4	1185091	q	0	28.0	n/a	n/a	7
1187.274	0.0	nontarget	4	1187274	l	0	28.0	n/a	n/a	7
1189.457	0.0	target	5	1189457	t	1	28.0	1	0.3877726	7
1189.691	0.5	BAD keypress	1	1189691	n/a	n/a	n/a	n/a	n/a	n/a
1189.941	0.0	keypress	3	1189941	n/a	n/a	n/a	n/a	n/a	n/a
1191.574	0.0	nontarget	4	1191574	a	0	39.0	n/a	n/a	7
1194.074	0.0	nontarget	4	1194074	m	0	47.0	n/a	n/a	7
1196.074	0.0	nontarget	4	1196074	h	0	17.0	n/a	n/a	7
1198.457	0.0	nontarget	4	1198457	y	0	40.0	n/a	n/a	7
1200.457	0.0	nontarget	4	1200457	e	0	17.0	n/a	n/a	7
1202.907	0.0	target	5	1202907	x	1	44.0	1	0.4253942	7
1203.19	0.5	BAD keypress	1	1203190	n/a	n/a	n/a	n/a	n/a	n/a
1203.44	0.0	keypress	3	1203440	n/a	n/a	n/a	n/a	n/a	n/a
1204.807	0.0	target	5	1204807	o	1	23.0	1	0.4933752	7
1205.14	0.5	BAD keypress	1	1205140	n/a	n/a	n/a	n/a	n/a	n/a
1205.39	0.0	keypress	3	1205390	n/a	n/a	n/a	n/a	n/a	n/a
1206.973	0.0	nontarget	4	1206973	h	0	36.0	n/a	n/a	7
1209.123	0.0	nontarget	4	1209123	v	0	26.0	n/a	n/a	7
1211.373	0.0	target	5	1211373	e	1	32.0	1	0.4385487	7
1211.657	0.5	BAD keypress	1	1211657	n/a	n/a	n/a	n/a	n/a	n/a
1211.907	0.0	keypress	3	1211907	n/a	n/a	n/a	n/a	n/a	n/a
1213.423	0.0	nontarget	4	1213423	e	0	32.0	n/a	n/a	7
1215.906	0.0	nontarget	4	1215906	k	0	46.0	n/a	n/a	7
1218.39	0.0	nontarget	4	1218390	s	0	46.0	n/a	n/a	7
1220.406	0.0	nontarget	4	1220406	l	0	18.0	n/a	n/a	7
1222.673	0.0	nontarget	4	1222673	c	0	33.0	n/a	n/a	7
1225.123	0.0	nontarget	4	1225123	ö	0	44.0	n/a	n/a	7
1227.373	0.0	nontarget	4	1227373	b	0	32.0	n/a	n/a	7
1229.406	0.0	nontarget	4	1229406	r	0	19.0	n/a	n/a	7
1231.789	0.0	nontarget	4	1231789	q	0	40.0	n/a	n/a	7
1234.256	0.0	target	5	1234256	v	1	45.0	1	0.3706311	7
1234.456	0.5	BAD keypress	1	1234456	n/a	n/a	n/a	n/a	n/a	n/a
1234.706	0.0	keypress	3	1234706	n/a	n/a	n/a	n/a	n/a	n/a
1236.339	0.0	nontarget	4	1236339	z	0	39.0	n/a	n/a	7
1238.872	0.0	nontarget	4	1238872	r	0	49.0	n/a	n/a	7
1241.322	0.0	nontarget	4	1241322	p	0	44.0	n/a	n/a	7
1243.588	0.0	nontarget	4	1243588	x	0	33.0	n/a	n/a	7
1245.588	0.0	nontarget	4	1245588	n	0	17.0	n/a	n/a	7
1247.888	0.0	nontarget	4	1247888	ü	0	35.0	n/a	n/a	7
1249.988	0.0	nontarget	4	1249988	k	0	23.0	n/a	n/a	7
1252.288	0.0	target	5	1252288	r	1	35.0	1	0.4646972	7
1252.588	0.5	BAD keypress	1	1252588	n/a	n/a	n/a	n/a	n/a	n/a
1252.838	0.0	keypress	3	1252838	n/a	n/a	n/a	n/a	n/a	n/a
1254.238	0.0	nontarget	4	1254238	x	0	25.0	n/a	n/a	7
1256.488	0.0	nontarget	4	1256488	d	0	32.0	n/a	n/a	7
1258.704	0.0	nontarget	4	1258704	a	0	30.0	n/a	n/a	7
1260.921	0.0	nontarget	4	1260921	ö	0	30.0	n/a	n/a	7
1263.354	0.0	nontarget	4	1263354	q	0	43.0	n/a	n/a	7
1265.488	0.0	nontarget	4	1265488	k	0	25.0	n/a	n/a	7
1267.821	0.0	target	5	1267821	r	1	37.0	1	0.3710639	7
1268.038	0.5	BAD keypress	1	1268038	n/a	n/a	n/a	n/a	n/a	n/a
1268.288	0.0	keypress	3	1268288	n/a	n/a	n/a	n/a	n/a	n/a
1269.971	0.0	target	5	1269971	z	1	42.0	1	0.5250322	7
1270.337	0.5	BAD keypress	1	1270337	n/a	n/a	n/a	n/a	n/a	n/a
1270.587	0.0	keypress	3	1270587	n/a	n/a	n/a	n/a	n/a	n/a
1272.321	0.0	target	5	1272321	q	1	45.0	1	0.4309744	7
1272.604	0.5	BAD keypress	1	1272604	n/a	n/a	n/a	n/a	n/a	n/a
1272.854	0.0	keypress	3	1272854	n/a	n/a	n/a	n/a	n/a	n/a
1274.67	0.0	nontarget	4	1274670	k	0	50.0	n/a	n/a	7
1276.754	0.0	nontarget	4	1276754	ö	0	22.0	n/a	n/a	7
1278.804	0.0	nontarget	4	1278804	e	0	20.0	n/a	n/a	7
1281.237	0.0	nontarget	4	1281237	t	0	43.0	n/a	n/a	7
1283.187	0.0	nontarget	4	1283187	ä	0	14.0	n/a	n/a	7
1285.137	0.0	nontarget	4	1285137	h	0	14.0	n/a	n/a	7
1287.553	0.0	nontarget	4	1287553	g	0	42.0	n/a	n/a	7
1289.853	0.0	nontarget	4	1289853	e	0	35.0	n/a	n/a	7
1292.336	0.0	nontarget	4	1292336	t	0	46.0	n/a	n/a	7
1294.536	0.0	nontarget	4	1294536	x	0	29.0	n/a	n/a	7
1295.636	101.69600000000014	BAD_break	2	1295636	n/a	n/a	n/a	n/a	n/a	n/a
1397.832	0.0	nontarget	4	1397832	k	0	32.0	n/a	n/a	8
1400.032	0.0	nontarget	4	1400032	y	0	29.0	n/a	n/a	8
1402.015	0.0	nontarget	4	1402015	a	0	16.0	n/a	n/a	8
1404.515	0.0	nontarget	4	1404515	v	0	47.0	n/a	n/a	8
1406.548	0.0	target	5	1406548	q	1	19.0	1	0.4823421	8
1406.865	0.5	BAD keypress	1	1406865	n/a	n/a	n/a	n/a	n/a	n/a
1407.115	0.0	keypress	3	1407115	n/a	n/a	n/a	n/a	n/a	n/a
1408.398	0.0	target	5	1408398	x	1	18.0	1	0.4402699	8
1408.665	0.5	BAD keypress	1	1408665	n/a	n/a	n/a	n/a	n/a	n/a
1408.915	0.0	keypress	3	1408915	n/a	n/a	n/a	n/a	n/a	n/a
1410.531	0.0	nontarget	4	1410531	i	0	38.0	n/a	n/a	8
1412.531	0.0	nontarget	4	1412531	t	0	17.0	n/a	n/a	8
1414.664	0.0	target	5	1414664	y	1	25.0	1	0.3814505	8
1414.915	0.5	BAD keypress	1	1414915	n/a	n/a	n/a	n/a	n/a	n/a
1415.165	0.0	keypress	3	1415165	n/a	n/a	n/a	n/a	n/a	n/a
1416.914	0.0	nontarget	4	1416914	w	0	46.0	n/a	n/a	8
1419.281	0.0	nontarget	4	1419281	ä	0	39.0	n/a	n/a	8
1421.781	0.0	nontarget	4	1421781	p	0	47.0	n/a	n/a	8
1423.814	0.0	nontarget	4	1423814	c	0	19.0	n/a	n/a	8
1426.147	0.0	nontarget	4	1426147	n	0	37.0	n/a	n/a	8
1428.28	0.0	nontarget	4	1428280	ö	0	25.0	n/a	n/a	8
1430.68	0.0	nontarget	4	1430680	f	0	41.0	n/a	n/a	8
1432.647	0.0	nontarget	4	1432647	h	0	15.0	n/a	n/a	8
1434.597	0.0	nontarget	4	1434597	u	0	14.0	n/a	n/a	8
1436.98	0.0	nontarget	4	1436980	k	0	40.0	n/a	n/a	8
1438.93	0.0	nontarget	4	1438930	p	0	14.0	n/a	n/a	8
1441.197	0.0	nontarget	4	1441197	i	0	33.0	n/a	n/a	8
1443.23	0.0	nontarget	4	1443230	f	0	19.0	n/a	n/a	8
1445.563	0.0	nontarget	4	1445563	s	0	37.0	n/a	n/a	8
1447.98	0.0	nontarget	4	1447980	u	0	42.0	n/a	n/a	8
1450.38	0.0	nontarget	4	1450380	g	0	41.0	n/a	n/a	8
1452.613	0.0	target	5	1452613	h	1	31.0	1	0.4624937	8
1452.93	0.5	BAD keypress	1	1452930	n/a	n/a	n/a	n/a	n/a	n/a
1453.18	0.0	keypress	3	1453180	n/a	n/a	n/a	n/a	n/a	n/a
1454.996	0.0	nontarget	4	1454996	j	0	50.0	n/a	n/a	8
1457.479	0.0	nontarget	4	1457479	m	0	46.0	n/a	n/a	8
1459.696	0.0	nontarget	4	1459696	ü	0	30.0	n/a	n/a	8
1462.162	0.0	nontarget	4	1462162	v	0	45.0	n/a	n/a	8
1464.562	0.0	nontarget	4	1464562	x	0	41.0	n/a	n/a	8
1466.962	0.0	nontarget	4	1466962	g	0	41.0	n/a	n/a	8
1469.462	0.0	nontarget	4	1469462	k	0	47.0	n/a	n/a	8
1471.645	0.0	nontarget	4	1471645	a	0	28.0	n/a	n/a	8
1473.862	0.0	nontarget	4	1473862	e	0	30.0	n/a	n/a	8
1476.095	0.0	nontarget	4	1476095	u	0	31.0	n/a	n/a	8
1478.578	0.0	nontarget	4	1478578	i	0	46.0	n/a	n/a	8
1480.778	0.0	nontarget	4	1480778	p	0	29.0	n/a	n/a	8
1483.145	0.0	nontarget	4	1483145	k	0	39.0	n/a	n/a	8
1485.545	0.0	target	5	1485545	e	1	41.0	1	0.4404278	8
1485.878	0.5	BAD keypress	1	1485878	n/a	n/a	n/a	n/a	n/a	n/a
1486.128	0.0	keypress	3	1486128	n/a	n/a	n/a	n/a	n/a	n/a
1487.511	0.0	nontarget	4	1487511	n	0	24.0	n/a	n/a	8
1489.578	0.0	target	5	1489578	l	1	21.0	1	0.4709637	8
1489.911	0.5	BAD keypress	1	1489911	n/a	n/a	n/a	n/a	n/a	n/a
1490.161	0.0	keypress	3	1490161	n/a	n/a	n/a	n/a	n/a	n/a
1491.478	0.0	nontarget	4	1491478	j	0	20.0	n/a	n/a	8
1493.878	0.0	target	5	1493878	y	1	41.0	1	0.4107967	8
1494.128	0.5	BAD keypress	1	1494128	n/a	n/a	n/a	n/a	n/a	n/a
1494.378	0.0	keypress	3	1494378	n/a	n/a	n/a	n/a	n/a	n/a
1495.594	0.0	nontarget	4	1495594	ß	0	14.0	n/a	n/a	8
1497.878	0.0	nontarget	4	1497878	w	0	34.0	n/a	n/a	8
1500.244	0.0	nontarget	4	1500244	i	0	39.0	n/a	n/a	8
1502.511	0.0	nontarget	4	1502511	q	0	33.0	n/a	n/a	8
1504.861	0.0	nontarget	4	1504861	s	0	38.0	n/a	n/a	8
1507.077	0.0	target	5	1507077	o	1	30.0	1	0.4265327	8
1507.344	0.5	BAD keypress	1	1507344	n/a	n/a	n/a	n/a	n/a	n/a
1507.594	0.0	keypress	3	1507594	n/a	n/a	n/a	n/a	n/a	n/a
1509.327	0.0	nontarget	4	1509327	ö	0	45.0	n/a	n/a	8
1511.277	0.0	target	5	1511277	v	1	14.0	1	0.4663642	8
1511.56	0.5	BAD keypress	1	1511560	n/a	n/a	n/a	n/a	n/a	n/a
1511.81	0.0	keypress	3	1511810	n/a	n/a	n/a	n/a	n/a	n/a
1513.31	0.0	nontarget	4	1513310	s	0	31.0	n/a	n/a	8
1515.827	0.0	nontarget	4	1515827	p	0	48.0	n/a	n/a	8
1517.793	0.0	nontarget	4	1517793	o	0	15.0	n/a	n/a	8
1519.843	0.0	nontarget	4	1519843	ß	0	20.0	n/a	n/a	8
1521.91	0.0	nontarget	4	1521910	u	0	21.0	n/a	n/a	8
1524.343	0.0	nontarget	4	1524343	ö	0	43.0	n/a	n/a	8
1526.793	0.0	target	5	1526793	s	1	44.0	1	0.4373575	8
1527.076	0.5	BAD keypress	1	1527076	n/a	n/a	n/a	n/a	n/a	n/a
1527.326	0.0	keypress	3	1527326	n/a	n/a	n/a	n/a	n/a	n/a
1528.959	0.0	target	5	1528959	b	1	39.0	1	0.5106524	8
1529.31	0.5	BAD keypress	1	1529310	n/a	n/a	n/a	n/a	n/a	n/a
1529.56	0.0	keypress	3	1529560	n/a	n/a	n/a	n/a	n/a	n/a
1530.809	0.0	target	5	1530809	i	1	16.0	1	0.3885829	8
1531.059	0.5	BAD keypress	1	1531059	n/a	n/a	n/a	n/a	n/a	n/a
1531.309	0.0	keypress	3	1531309	n/a	n/a	n/a	n/a	n/a	n/a
1532.976	0.0	nontarget	4	1532976	w	0	41.0	n/a	n/a	8
1535.093	0.0	nontarget	4	1535093	j	0	24.0	n/a	n/a	8
1537.309	0.0	nontarget	4	1537309	o	0	30.0	n/a	n/a	8
1539.676	0.0	nontarget	4	1539676	g	0	39.0	n/a	n/a	8
1542.192	0.0	nontarget	4	1542192	ß	0	48.0	n/a	n/a	8
1543.292	10.365999999999984	BAD_break	2	1543292	n/a	n/a	n/a	n/a	n/a	n/a
1553.908	0.5	BAD keypress	1	1553908	n/a	n/a	n/a	n/a	n/a	n/a
1554.158	0.0	keypress	3	1554158	n/a	n/a	n/a	n/a	n/a	n/a
1555.425	0.0	nontarget	4	1555425	p	0	18.0	n/a	n/a	9
1557.625	0.0	nontarget	4	1557625	w	0	29.0	n/a	n/a	9
1560.175	0.0	nontarget	4	1560175	m	0	50.0	n/a	n/a	9
1562.658	0.0	nontarget	4	1562658	z	0	46.0	n/a	n/a	9
1565.158	0.0	nontarget	4	1565158	c	0	47.0	n/a	n/a	9
1567.124	0.0	target	5	1567124	z	1	15.0	1	0.3910613	9
1567.358	0.5	BAD keypress	1	1567358	n/a	n/a	n/a	n/a	n/a	n/a
1567.608	0.0	keypress	3	1567608	n/a	n/a	n/a	n/a	n/a	n/a
1568.974	0.0	nontarget	4	1568974	ß	0	23.0	n/a	n/a	9
1571.008	0.0	nontarget	4	1571008	t	0	19.0	n/a	n/a	9
1572.958	0.0	nontarget	4	1572958	v	0	14.0	n/a	n/a	9
1575.491	0.0	nontarget	4	1575491	l	0	49.0	n/a	n/a	9
1577.674	0.0	nontarget	4	1577674	r	0	28.0	n/a	n/a	9
1579.874	0.0	nontarget	4	1579874	ü	0	29.0	n/a	n/a	9
1582.141	0.0	nontarget	4	1582141	ö	0	33.0	n/a	n/a	9
1584.574	0.0	nontarget	4	1584574	f	0	43.0	n/a	n/a	9
1586.89	0.0	nontarget	4	1586890	h	0	36.0	n/a	n/a	9
1589.04	0.0	nontarget	4	1589040	b	0	26.0	n/a	n/a	9
1591.307	0.0	target	5	1591307	w	1	33.0	1	0.4151407	9
1591.574	0.5	BAD keypress	1	1591574	n/a	n/a	n/a	n/a	n/a	n/a
1591.824	0.0	keypress	3	1591824	n/a	n/a	n/a	n/a	n/a	n/a
1593.24	0.0	nontarget	4	1593240	j	0	26.0	n/a	n/a	9
1595.24	0.0	target	5	1595240	o	1	17.0	1	0.5616427	9
1595.623	0.5	BAD keypress	1	1595623	n/a	n/a	n/a	n/a	n/a	n/a
1595.873	0.0	keypress	3	1595873	n/a	n/a	n/a	n/a	n/a	n/a
1597.107	0.0	nontarget	4	1597107	m	0	15.0	n/a	n/a	9
1599.09	0.0	nontarget	4	1599090	e	0	16.0	n/a	n/a	9
1601.256	0.0	nontarget	4	1601256	h	0	27.0	n/a	n/a	9
1603.723	0.0	nontarget	4	1603723	n	0	45.0	n/a	n/a	9
1606.089	0.0	nontarget	4	1606089	v	0	39.0	n/a	n/a	9
1608.456	0.0	nontarget	4	1608456	z	0	39.0	n/a	n/a	9
1610.773	0.0	nontarget	4	1610773	x	0	36.0	n/a	n/a	9
1612.823	0.0	nontarget	4	1612823	a	0	20.0	n/a	n/a	9
1615.056	0.0	nontarget	4	1615056	w	0	31.0	n/a	n/a	9
1617.156	0.0	nontarget	4	1617156	m	0	23.0	n/a	n/a	9
1619.106	0.0	nontarget	4	1619106	s	0	14.0	n/a	n/a	9
1621.472	0.0	nontarget	4	1621472	n	0	39.0	n/a	n/a	9
1624.005	0.0	nontarget	4	1624005	c	0	49.0	n/a	n/a	9
1626.239	0.0	target	5	1626239	e	1	31.0	1	0.4567605	9
1626.572	0.5	BAD keypress	1	1626572	n/a	n/a	n/a	n/a	n/a	n/a
1626.822	0.0	keypress	3	1626822	n/a	n/a	n/a	n/a	n/a	n/a
1628.055	0.0	nontarget	4	1628055	ß	0	15.0	n/a	n/a	9
1630.305	0.0	target	5	1630305	h	1	32.0	1	0.4860486	9
1630.639	0.5	BAD keypress	1	1630639	n/a	n/a	n/a	n/a	n/a	n/a
1630.889	0.0	keypress	3	1630889	n/a	n/a	n/a	n/a	n/a	n/a
1632.622	0.0	nontarget	4	1632622	f	0	45.0	n/a	n/a	9
1634.622	0.0	target	5	1634622	a	1	17.0	1	0.489243	9
1634.938	0.5	BAD keypress	1	1634938	n/a	n/a	n/a	n/a	n/a	n/a
1635.188	0.0	keypress	3	1635188	n/a	n/a	n/a	n/a	n/a	n/a
1637.005	0.0	nontarget	4	1637005	j	0	50.0	n/a	n/a	9
1639.105	0.0	nontarget	4	1639105	v	0	23.0	n/a	n/a	9
1641.238	0.0	target	5	1641238	n	1	25.0	1	0.4325202	9
1641.488	0.5	BAD keypress	1	1641488	n/a	n/a	n/a	n/a	n/a	n/a
1641.738	0.0	keypress	3	1641738	n/a	n/a	n/a	n/a	n/a	n/a
1643.055	0.0	nontarget	4	1643055	l	0	20.0	n/a	n/a	9
1645.388	0.0	nontarget	4	1645388	r	0	37.0	n/a	n/a	9
1647.704	0.0	nontarget	4	1647704	g	0	36.0	n/a	n/a	9
1650.254	0.0	nontarget	4	1650254	i	0	50.0	n/a	n/a	9
1652.337	0.0	target	5	1652337	y	1	22.0	1	0.5162688	9
1652.688	0.5	BAD keypress	1	1652688	n/a	n/a	n/a	n/a	n/a	n/a
1652.938	0.0	keypress	3	1652938	n/a	n/a	n/a	n/a	n/a	n/a
1654.337	0.0	nontarget	4	1654337	c	0	25.0	n/a	n/a	9
1656.521	0.0	nontarget	4	1656521	m	0	28.0	n/a	n/a	9
1659.004	0.0	nontarget	4	1659004	n	0	46.0	n/a	n/a	9
1661.27	0.0	nontarget	4	1661270	x	0	33.0	n/a	n/a	9
1663.387	0.0	nontarget	4	1663387	d	0	24.0	n/a	n/a	9
1665.604	0.0	target	5	1665604	j	1	30.0	1	0.4331753	9
1665.904	0.5	BAD keypress	1	1665904	n/a	n/a	n/a	n/a	n/a	n/a
1666.154	0.0	keypress	3	1666154	n/a	n/a	n/a	n/a	n/a	n/a
1667.57	0.0	nontarget	4	1667570	q	0	26.0	n/a	n/a	9
1669.587	0.0	nontarget	4	1669587	m	0	18.0	n/a	n/a	9
1671.687	0.0	nontarget	4	1671687	d	0	23.0	n/a	n/a	9
1673.887	0.0	target	5	1673887	h	1	29.0	1	0.4056762	9
1674.153	0.5	BAD keypress	1	1674153	n/a	n/a	n/a	n/a	n/a	n/a
1674.403	0.0	keypress	3	1674403	n/a	n/a	n/a	n/a	n/a	n/a
1676.003	0.0	nontarget	4	1676003	ü	0	37.0	n/a	n/a	9
1678.303	0.0	nontarget	4	1678303	i	0	35.0	n/a	n/a	9
1680.853	0.0	nontarget	4	1680853	w	0	50.0	n/a	n/a	9
1683.353	0.0	nontarget	4	1683353	g	0	47.0	n/a	n/a	9
1685.703	0.0	nontarget	4	1685703	x	0	38.0	n/a	n/a	9
1688.169	0.0	nontarget	4	1688169	y	0	45.0	n/a	n/a	9
1690.503	0.0	nontarget	4	1690503	ß	0	37.0	n/a	n/a	9
1692.986	0.0	target	5	1692986	j	1	46.0	1	0.4892176	9
1693.336	0.5	BAD keypress	1	1693336	n/a	n/a	n/a	n/a	n/a	n/a
1693.586	0.0	keypress	3	1693586	n/a	n/a	n/a	n/a	n/a	n/a
1694.986	0.0	nontarget	4	1694986	f	0	25.0	n/a	n/a	9
1697.502	0.0	nontarget	4	1697502	ä	0	48.0	n/a	n/a	9
1699.552	0.0	nontarget	4	1699552	ö	0	20.0	n/a	n/a	9
1700.652	23.46600000000012	BAD_break	2	1700652	n/a	n/a	n/a	n/a	n/a	n/a
1724.618	0.0	nontarget	4	1724618	g	0	48.0	n/a	n/a	10
1727.051	0.0	target	5	1727051	w	1	43.0	1	0.4217192	10
1727.301	0.5	BAD keypress	1	1727301	n/a	n/a	n/a	n/a	n/a	n/a
1727.551	0.0	keypress	3	1727551	n/a	n/a	n/a	n/a	n/a	n/a
1728.784	0.0	nontarget	4	1728784	ä	0	15.0	n/a	n/a	10
1731.017	0.0	target	5	1731017	b	1	31.0	1	0.422922	10
1731.284	0.5	BAD keypress	1	1731284	n/a	n/a	n/a	n/a	n/a	n/a
1731.534	0.0	keypress	3	1731534	n/a	n/a	n/a	n/a	n/a	n/a
1732.984	0.0	nontarget	4	1732984	s	0	28.0	n/a	n/a	10
1735.367	0.0	nontarget	4	1735367	v	0	40.0	n/a	n/a	10
1737.734	0.0	nontarget	4	1737734	i	0	39.0	n/a	n/a	10
1739.967	0.0	nontarget	4	1739967	u	0	31.0	n/a	n/a	10
1742.317	0.0	target	5	1742317	z	1	38.0	1	0.450771	10
1742.6	0.5	BAD keypress	1	1742600	n/a	n/a	n/a	n/a	n/a	n/a
1742.85	0.0	keypress	3	1742850	n/a	n/a	n/a	n/a	n/a	n/a
1744.067	0.0	nontarget	4	1744067	c	0	14.0	n/a	n/a	10
1746.2	0.0	target	5	1746200	t	1	25.0	1	0.4711156	10
1746.55	0.5	BAD keypress	1	1746550	n/a	n/a	n/a	n/a	n/a	n/a
1746.8	0.0	keypress	3	1746800	n/a	n/a	n/a	n/a	n/a	n/a
1748.083	0.0	nontarget	4	1748083	ü	0	18.0	n/a	n/a	10
1750.617	0.0	nontarget	4	1750617	o	0	49.0	n/a	n/a	10
1752.966	0.0	nontarget	4	1752966	u	0	38.0	n/a	n/a	10
1755.2	0.0	target	5	1755200	x	1	31.0	1	0.4149548	10
1755.45	0.5	BAD keypress	1	1755450	n/a	n/a	n/a	n/a	n/a	n/a
1755.7	0.0	keypress	3	1755700	n/a	n/a	n/a	n/a	n/a	n/a
1757.5	0.0	nontarget	4	1757500	h	0	49.0	n/a	n/a	10
1759.833	0.0	nontarget	4	1759833	ö	0	37.0	n/a	n/a	10
1761.983	0.0	nontarget	4	1761983	x	0	26.0	n/a	n/a	10
1764.283	0.0	nontarget	4	1764283	f	0	35.0	n/a	n/a	10
1766.666	0.0	target	5	1766666	ä	1	40.0	1	0.4520335	10
1766.966	0.5	BAD keypress	1	1766966	n/a	n/a	n/a	n/a	n/a	n/a
1767.216	0.0	keypress	3	1767216	n/a	n/a	n/a	n/a	n/a	n/a
1768.549	0.0	target	5	1768549	m	1	21.0	1	0.4406327	10
1768.833	0.5	BAD keypress	1	1768833	n/a	n/a	n/a	n/a	n/a	n/a
1769.083	0.0	keypress	3	1769083	n/a	n/a	n/a	n/a	n/a	n/a
1770.299	0.0	nontarget	4	1770299	g	0	14.0	n/a	n/a	10
1772.566	0.0	nontarget	4	1772566	m	0	33.0	n/a	n/a	10
1774.899	0.0	nontarget	4	1774899	z	0	37.0	n/a	n/a	10
1777.099	0.0	nontarget	4	1777099	p	0	29.0	n/a	n/a	10
1779.515	0.0	nontarget	4	1779515	q	0	42.0	n/a	n/a	10
1781.682	0.0	target	5	1781682	z	1	27.0	1	0.475022	10
1781.999	0.5	BAD keypress	1	1781999	n/a	n/a	n/a	n/a	n/a	n/a
1782.249	0.0	keypress	3	1782249	n/a	n/a	n/a	n/a	n/a	n/a
1783.498	0.0	nontarget	4	1783498	ö	0	16.0	n/a	n/a	10
1785.515	0.0	nontarget	4	1785515	m	0	18.0	n/a	n/a	10
1787.815	0.0	target	5	1787815	i	1	35.0	1	0.4374956	10
1788.065	0.5	BAD keypress	1	1788065	n/a	n/a	n/a	n/a	n/a	n/a
1788.315	0.0	keypress	3	1788315	n/a	n/a	n/a	n/a	n/a	n/a
1789.715	0.0	nontarget	4	1789715	q	0	25.0	n/a	n/a	10
1791.965	0.0	nontarget	4	1791965	z	0	32.0	n/a	n/a	10
1794.498	0.0	target	5	1794498	p	1	49.0	1	0.4100256	10
1794.748	0.5	BAD keypress	1	1794748	n/a	n/a	n/a	n/a	n/a	n/a
1794.998	0.0	keypress	3	1794998	n/a	n/a	n/a	n/a	n/a	n/a
1796.598	0.0	nontarget	4	1796598	n	0	37.0	n/a	n/a	10
1798.565	0.0	nontarget	4	1798565	w	0	15.0	n/a	n/a	10
1800.831	0.0	nontarget	4	1800831	j	0	33.0	n/a	n/a	10
1803.281	0.0	nontarget	4	1803281	q	0	44.0	n/a	n/a	10
1805.531	0.0	nontarget	4	1805531	y	0	32.0	n/a	n/a	10
1807.531	0.0	nontarget	4	1807531	x	0	17.0	n/a	n/a	10
1809.664	0.0	target	5	1809664	d	1	25.0	1	0.4268979	10
1809.947	0.5	BAD keypress	1	1809947	n/a	n/a	n/a	n/a	n/a	n/a
1810.197	0.0	keypress	3	1810197	n/a	n/a	n/a	n/a	n/a	n/a
1811.814	0.0	nontarget	4	1811814	i	0	38.0	n/a	n/a	10
1814.331	0.0	target	5	1814331	j	1	48.0	1	0.5121305	10
1814.664	0.5	BAD keypress	1	1814664	n/a	n/a	n/a	n/a	n/a	n/a
1814.914	0.0	keypress	3	1814914	n/a	n/a	n/a	n/a	n/a	n/a
1816.564	0.0	nontarget	4	1816564	w	0	40.0	n/a	n/a	10
1818.78	0.0	nontarget	4	1818780	e	0	30.0	n/a	n/a	10
1821.03	0.0	nontarget	4	1821030	s	0	32.0	n/a	n/a	10
1822.997	0.0	nontarget	4	1822997	c	0	15.0	n/a	n/a	10
1825.48	0.0	nontarget	4	1825480	q	0	46.0	n/a	n/a	10
1827.48	0.0	nontarget	4	1827480	n	0	17.0	n/a	n/a	10
1829.88	0.0	nontarget	4	1829880	y	0	41.0	n/a	n/a	10
1832.196	0.0	nontarget	4	1832196	x	0	36.0	n/a	n/a	10
1834.246	0.0	target	5	1834246	s	1	20.0	1	0.4349764	10
1834.513	0.5	BAD keypress	1	1834513	n/a	n/a	n/a	n/a	n/a	n/a
1834.763	0.0	keypress	3	1834763	n/a	n/a	n/a	n/a	n/a	n/a
1836.246	0.0	nontarget	4	1836246	w	0	30.0	n/a	n/a	10
1838.629	0.0	nontarget	4	1838629	z	0	40.0	n/a	n/a	10
1841.179	0.0	nontarget	4	1841179	p	0	50.0	n/a	n/a	10
1843.663	0.0	nontarget	4	1843663	k	0	46.0	n/a	n/a	10
1845.679	0.0	nontarget	4	1845679	l	0	18.0	n/a	n/a	10
1847.696	0.0	nontarget	4	1847696	o	0	18.0	n/a	n/a	10
1849.962	0.0	nontarget	4	1849962	a	0	33.0	n/a	n/a	10
1852.012	0.0	nontarget	4	1852012	q	0	20.0	n/a	n/a	10
1854.312	0.0	nontarget	4	1854312	z	0	35.0	n/a	n/a	10
1856.362	0.0	target	5	1856362	q	1	20.0	1	0.4457173	10
1856.645	0.5	BAD keypress	1	1856645	n/a	n/a	n/a	n/a	n/a	n/a
1856.895	0.0	keypress	3	1856895	n/a	n/a	n/a	n/a	n/a	n/a
1858.612	0.0	nontarget	4	1858612	a	0	44.0	n/a	n/a	10
1860.845	0.0	nontarget	4	1860845	f	0	31.0	n/a	n/a	10
1863.095	0.0	nontarget	4	1863095	n	0	32.0	n/a	n/a	10
1865.445	0.0	nontarget	4	1865445	i	0	38.0	n/a	n/a	10
1867.878	0.0	nontarget	4	1867878	j	0	43.0	n/a	n/a	10
1868.978	16.84900000000016	BAD_break	2	1868978	n/a	n/a	n/a	n/a	n/a	n/a
1886.327	0.0	nontarget	4	1886327	g	0	28.0	n/a	n/a	11
1888.811	0.0	nontarget	4	1888811	c	0	46.0	n/a	n/a	11
1890.844	0.0	nontarget	4	1890844	b	0	19.0	n/a	n/a	11
1893.177	0.0	nontarget	4	1893177	s	0	37.0	n/a	n/a	11
1895.71	0.0	nontarget	4	1895710	m	0	49.0	n/a	n/a	11
1897.944	0.0	nontarget	4	1897944	g	0	31.0	n/a	n/a	11
1899.993	0.0	nontarget	4	1899993	ß	0	20.0	n/a	n/a	11
1902.31	0.0	nontarget	4	1902310	s	0	36.0	n/a	n/a	11
1904.71	0.0	nontarget	4	1904710	ä	0	41.0	n/a	n/a	11
1907.06	0.0	nontarget	4	1907060	j	0	38.0	n/a	n/a	11
1909.293	0.0	nontarget	4	1909293	n	0	31.0	n/a	n/a	11
1911.76	0.0	nontarget	4	1911760	f	0	45.0	n/a	n/a	11
1913.743	0.0	nontarget	4	1913743	ü	0	16.0	n/a	n/a	11
1915.993	0.0	nontarget	4	1915993	r	0	32.0	n/a	n/a	11
1918.176	0.0	nontarget	4	1918176	k	0	28.0	n/a	n/a	11
1920.476	0.0	nontarget	4	1920476	g	0	35.0	n/a	n/a	11
1922.742	0.0	target	5	1922742	f	1	33.0	1	0.3807584	11
1922.993	0.5	BAD keypress	1	1922993	n/a	n/a	n/a	n/a	n/a	n/a
1923.243	0.0	keypress	3	1923243	n/a	n/a	n/a	n/a	n/a	n/a
1924.859	0.0	nontarget	4	1924859	ü	0	38.0	n/a	n/a	11
1927.276	0.0	target	5	1927276	a	1	42.0	1	0.3752699	11
1927.526	0.5	BAD keypress	1	1927526	n/a	n/a	n/a	n/a	n/a	n/a
1927.776	0.0	keypress	3	1927776	n/a	n/a	n/a	n/a	n/a	n/a
1929.009	0.0	target	5	1929009	h	1	15.0	1	0.4498829	11
1929.309	0.5	BAD keypress	1	1929309	n/a	n/a	n/a	n/a	n/a	n/a
1929.559	0.0	keypress	3	1929559	n/a	n/a	n/a	n/a	n/a	n/a
1931.142	0.0	nontarget	4	1931142	ä	0	36.0	n/a	n/a	11
1933.642	0.0	target	5	1933642	n	1	47.0	1	0.4405268	11
1933.909	0.5	BAD keypress	1	1933909	n/a	n/a	n/a	n/a	n/a	n/a
1934.159	0.0	keypress	3	1934159	n/a	n/a	n/a	n/a	n/a	n/a
1935.542	0.0	target	5	1935542	f	1	24.0	1	0.3964381	11
1935.775	0.5	BAD keypress	1	1935775	n/a	n/a	n/a	n/a	n/a	n/a
1936.025	0.0	keypress	3	1936025	n/a	n/a	n/a	n/a	n/a	n/a
1937.809	0.0	nontarget	4	1937809	ö	0	48.0	n/a	n/a	11
1940.092	0.0	nontarget	4	1940092	n	0	34.0	n/a	n/a	11
1942.292	0.0	nontarget	4	1942292	ä	0	29.0	n/a	n/a	11
1944.758	0.0	target	5	1944758	k	1	45.0	1	0.4594983	11
1945.025	0.5	BAD keypress	1	1945025	n/a	n/a	n/a	n/a	n/a	n/a
1945.275	0.0	keypress	3	1945275	n/a	n/a	n/a	n/a	n/a	n/a
1946.691	0.0	nontarget	4	1946691	p	0	26.0	n/a	n/a	11
1948.875	0.0	nontarget	4	1948875	w	0	28.0	n/a	n/a	11
1951.208	0.0	nontarget	4	1951208	o	0	37.0	n/a	n/a	11
1953.658	0.0	nontarget	4	1953658	s	0	44.0	n/a	n/a	11
1955.991	0.0	nontarget	4	1955991	r	0	37.0	n/a	n/a	11
1958.274	0.0	nontarget	4	1958274	z	0	34.0	n/a	n/a	11
1960.808	0.0	nontarget	4	1960808	b	0	49.0	n/a	n/a	11
1963.074	0.0	nontarget	4	1963074	y	0	33.0	n/a	n/a	11
1965.541	0.0	nontarget	4	1965541	l	0	45.0	n/a	n/a	11
1967.557	0.0	target	5	1967557	f	1	18.0	1	0.5389681	11
1967.924	0.5	BAD keypress	1	1967924	n/a	n/a	n/a	n/a	n/a	n/a
1968.174	0.0	keypress	3	1968174	n/a	n/a	n/a	n/a	n/a	n/a
1969.99	0.0	nontarget	4	1969990	u	0	50.0	n/a	n/a	11
1972.207	0.0	nontarget	4	1972207	z	0	30.0	n/a	n/a	11
1974.607	0.0	nontarget	4	1974607	g	0	41.0	n/a	n/a	11
1977.157	0.0	nontarget	4	1977157	k	0	50.0	n/a	n/a	11
1979.34	0.0	nontarget	4	1979340	x	0	28.0	n/a	n/a	11
1981.773	0.0	target	5	1981773	f	1	43.0	1	0.40196	11
1982.023	0.5	BAD keypress	1	1982023	n/a	n/a	n/a	n/a	n/a	n/a
1982.273	0.0	keypress	3	1982273	n/a	n/a	n/a	n/a	n/a	n/a
1983.69	0.0	target	5	1983690	r	1	26.0	1	0.4372325	11
1983.957	0.5	BAD keypress	1	1983957	n/a	n/a	n/a	n/a	n/a	n/a
1984.207	0.0	keypress	3	1984207	n/a	n/a	n/a	n/a	n/a	n/a
1985.556	0.0	nontarget	4	1985556	y	0	22.0	n/a	n/a	11
1987.94	0.0	nontarget	4	1987940	j	0	40.0	n/a	n/a	11
1989.923	0.0	nontarget	4	1989923	ß	0	16.0	n/a	n/a	11
1992.473	0.0	nontarget	4	1992473	n	0	50.0	n/a	n/a	11
1994.973	0.0	nontarget	4	1994973	t	0	47.0	n/a	n/a	11
1997.373	0.0	nontarget	4	1997373	j	0	41.0	n/a	n/a	11
1999.589	0.0	nontarget	4	1999589	i	0	30.0	n/a	n/a	11
2001.839	0.0	nontarget	4	2001839	s	0	32.0	n/a	n/a	11
2004.389	0.0	nontarget	4	2004389	h	0	50.0	n/a	n/a	11
2006.789	0.0	nontarget	4	2006789	t	0	41.0	n/a	n/a	11
2008.889	0.0	nontarget	4	2008889	q	0	23.0	n/a	n/a	11
2011.422	0.0	target	5	2011422	g	1	49.0	1	0.4311695	11
2011.705	0.5	BAD keypress	1	2011705	n/a	n/a	n/a	n/a	n/a	n/a
2011.955	0.0	keypress	3	2011955	n/a	n/a	n/a	n/a	n/a	n/a
2013.372	0.0	nontarget	4	2013372	ü	0	26.0	n/a	n/a	11
2015.872	0.0	nontarget	4	2015872	h	0	47.0	n/a	n/a	11
2018.255	0.0	nontarget	4	2018255	ö	0	40.0	n/a	n/a	11
2020.238	0.0	nontarget	4	2020238	o	0	16.0	n/a	n/a	11
2022.472	0.0	nontarget	4	2022472	t	0	31.0	n/a	n/a	11
2024.488	0.0	nontarget	4	2024488	g	0	18.0	n/a	n/a	11
2026.538	0.0	nontarget	4	2026538	l	0	20.0	n/a	n/a	11
2028.721	0.0	nontarget	4	2028721	i	0	28.0	n/a	n/a	11
2031.138	0.0	nontarget	4	2031138	m	0	42.0	n/a	n/a	11
2033.638	0.0	target	5	2033638	s	1	47.0	1	0.4539274	11
2033.954	0.5	BAD keypress	1	2033954	n/a	n/a	n/a	n/a	n/a	n/a
2034.204	0.0	keypress	3	2034204	n/a	n/a	n/a	n/a	n/a	n/a
2035.304	22.56600000000003	BAD_break	2	2035304	n/a	n/a	n/a	n/a	n/a	n/a
2058.37	0.0	target	5	2058370	c	1	41.0	1	0.4719236	12
2058.67	0.5	BAD keypress	1	2058670	n/a	n/a	n/a	n/a	n/a	n/a
2058.92	0.0	keypress	3	2058920	n/a	n/a	n/a	n/a	n/a	n/a
2060.353	0.0	target	5	2060353	p	1	27.0	1	0.3445954	12
2060.537	0.5	BAD keypress	1	2060537	n/a	n/a	n/a	n/a	n/a	n/a
2060.787	0.0	keypress	3	2060787	n/a	n/a	n/a	n/a	n/a	n/a
2062.536	0.0	nontarget	4	2062536	z	0	45.0	n/a	n/a	12
2064.82	0.0	nontarget	4	2064820	j	0	34.0	n/a	n/a	12
2067.22	0.0	nontarget	4	2067220	b	0	41.0	n/a	n/a	12
2069.353	0.0	nontarget	4	2069353	ö	0	25.0	n/a	n/a	12
2071.586	0.0	nontarget	4	2071586	h	0	31.0	n/a	n/a	12
2074.069	0.0	target	5	2074069	d	1	46.0	1	0.4036192	12
2074.303	0.5	BAD keypress	1	2074303	n/a	n/a	n/a	n/a	n/a	n/a
2074.553	0.0	keypress	3	2074553	n/a	n/a	n/a	n/a	n/a	n/a
2076.203	0.0	nontarget	4	2076203	w	0	40.0	n/a	n/a	12
2078.269	0.0	nontarget	4	2078269	u	0	21.0	n/a	n/a	12
2080.236	0.0	nontarget	4	2080236	v	0	15.0	n/a	n/a	12
2082.369	0.0	nontarget	4	2082369	ß	0	25.0	n/a	n/a	12
2084.885	0.0	nontarget	4	2084885	b	0	48.0	n/a	n/a	12
2086.985	0.0	nontarget	4	2086985	z	0	23.0	n/a	n/a	12
2089.285	0.0	nontarget	4	2089285	x	0	35.0	n/a	n/a	12
2091.619	0.0	nontarget	4	2091619	t	0	37.0	n/a	n/a	12
2094.068	0.0	nontarget	4	2094068	u	0	44.0	n/a	n/a	12
2096.035	0.0	nontarget	4	2096035	o	0	15.0	n/a	n/a	12
2098.118	0.0	nontarget	4	2098118	b	0	22.0	n/a	n/a	12
2100.102	0.0	nontarget	4	2100102	h	0	16.0	n/a	n/a	12
2102.635	0.0	target	5	2102635	m	1	49.0	1	0.4602652	12
2102.935	0.5	BAD keypress	1	2102935	n/a	n/a	n/a	n/a	n/a	n/a
2103.185	0.0	keypress	3	2103185	n/a	n/a	n/a	n/a	n/a	n/a
2104.418	0.0	nontarget	4	2104418	m	0	15.0	n/a	n/a	12
2106.701	0.0	target	5	2106701	ä	1	34.0	1	0.4574362	12
2106.985	0.5	BAD keypress	1	2106985	n/a	n/a	n/a	n/a	n/a	n/a
2107.235	0.0	keypress	3	2107235	n/a	n/a	n/a	n/a	n/a	n/a
2109.001	0.0	nontarget	4	2109001	o	0	47.0	n/a	n/a	12
2111.401	0.0	nontarget	4	2111401	s	0	41.0	n/a	n/a	12
2113.634	0.0	nontarget	4	2113634	u	0	31.0	n/a	n/a	12
2115.701	0.0	nontarget	4	2115701	ü	0	21.0	n/a	n/a	12
2118.217	0.0	nontarget	4	2118217	t	0	48.0	n/a	n/a	12
2120.301	0.0	nontarget	4	2120301	v	0	22.0	n/a	n/a	12
2122.734	0.0	nontarget	4	2122734	x	0	43.0	n/a	n/a	12
2125.034	0.0	nontarget	4	2125034	w	0	35.0	n/a	n/a	12
2127.034	0.0	target	5	2127034	p	1	17.0	1	0.4436273	12
2127.317	0.5	BAD keypress	1	2127317	n/a	n/a	n/a	n/a	n/a	n/a
2127.567	0.0	keypress	3	2127567	n/a	n/a	n/a	n/a	n/a	n/a
2128.867	0.0	nontarget	4	2128867	r	0	19.0	n/a	n/a	12
2131.067	0.0	nontarget	4	2131067	s	0	29.0	n/a	n/a	12
2133.05	0.0	nontarget	4	2133050	k	0	16.0	n/a	n/a	12
2135.167	0.0	target	5	2135167	v	1	24.0	1	0.4540867	12
2135.45	0.5	BAD keypress	1	2135450	n/a	n/a	n/a	n/a	n/a	n/a
2135.7	0.0	keypress	3	2135700	n/a	n/a	n/a	n/a	n/a	n/a
2137.283	0.0	nontarget	4	2137283	l	0	36.0	n/a	n/a	12
2139.6	0.0	nontarget	4	2139600	p	0	36.0	n/a	n/a	12
2141.983	0.0	nontarget	4	2141983	o	0	40.0	n/a	n/a	12
2144.216	0.0	nontarget	4	2144216	q	0	31.0	n/a	n/a	12
2146.216	0.0	nontarget	4	2146216	x	0	17.0	n/a	n/a	12
2148.583	0.0	nontarget	4	2148583	l	0	39.0	n/a	n/a	12
2150.699	0.0	nontarget	4	2150699	n	0	24.0	n/a	n/a	12
2152.699	0.0	nontarget	4	2152699	ü	0	17.0	n/a	n/a	12
2154.866	0.0	target	5	2154866	r	1	27.0	1	0.4335122	12
2155.116	0.5	BAD keypress	1	2155116	n/a	n/a	n/a	n/a	n/a	n/a
2155.366	0.0	keypress	3	2155366	n/a	n/a	n/a	n/a	n/a	n/a
2157.132	0.0	target	5	2157132	b	1	47.0	1	0.4708905	12
2157.449	0.5	BAD keypress	1	2157449	n/a	n/a	n/a	n/a	n/a	n/a
2157.699	0.0	keypress	3	2157699	n/a	n/a	n/a	n/a	n/a	n/a
2158.966	0.0	nontarget	4	2158966	ä	0	17.0	n/a	n/a	12
2161.199	0.0	nontarget	4	2161199	j	0	31.0	n/a	n/a	12
2163.732	0.0	nontarget	4	2163732	p	0	49.0	n/a	n/a	12
2166.132	0.0	nontarget	4	2166132	h	0	41.0	n/a	n/a	12
2168.632	0.0	nontarget	4	2168632	y	0	47.0	n/a	n/a	12
2171.132	0.0	target	5	2171132	q	1	47.0	1	0.4064795	12
2171.365	0.5	BAD keypress	1	2171365	n/a	n/a	n/a	n/a	n/a	n/a
2171.615	0.0	keypress	3	2171615	n/a	n/a	n/a	n/a	n/a	n/a
2173.082	0.0	nontarget	4	2173082	ä	0	29.0	n/a	n/a	12
2175.298	0.0	nontarget	4	2175298	q	0	30.0	n/a	n/a	12
2177.432	0.0	nontarget	4	2177432	ö	0	25.0	n/a	n/a	12
2179.881	0.0	nontarget	4	2179881	v	0	44.0	n/a	n/a	12
2182.098	0.0	nontarget	4	2182098	b	0	30.0	n/a	n/a	12
2184.048	0.0	nontarget	4	2184048	h	0	14.0	n/a	n/a	12
2186.298	0.0	nontarget	4	2186298	w	0	32.0	n/a	n/a	12
2188.714	0.0	nontarget	4	2188714	r	0	42.0	n/a	n/a	12
2191.148	0.0	target	5	2191148	b	1	43.0	1	0.4053534	12
2191.398	0.5	BAD keypress	1	2191398	n/a	n/a	n/a	n/a	n/a	n/a
2191.648	0.0	keypress	3	2191648	n/a	n/a	n/a	n/a	n/a	n/a
2193.214	0.0	nontarget	4	2193214	e	0	35.0	n/a	n/a	12
2195.347	0.0	nontarget	4	2195347	w	0	25.0	n/a	n/a	12
2197.631	0.0	target	5	2197631	p	1	34.0	1	0.3858585	12
2197.847	0.5	BAD keypress	1	2197847	n/a	n/a	n/a	n/a	n/a	n/a
2198.097	0.0	keypress	3	2198097	n/a	n/a	n/a	n/a	n/a	n/a
2199.614	0.0	nontarget	4	2199614	b	0	32.0	n/a	n/a	12
2201.914	0.0	nontarget	4	2201914	j	0	35.0	n/a	n/a	12
2203.014	15.016000000000076	BAD_break	2	2203014	n/a	n/a	n/a	n/a	n/a	n/a
2218.53	0.0	nontarget	4	2218530	y	0	22.0	n/a	n/a	13
2221.013	0.0	target	5	2221013	e	1	46.0	1	0.4739307	13
2221.313	0.5	BAD keypress	1	2221313	n/a	n/a	n/a	n/a	n/a	n/a
2221.563	0.0	keypress	3	2221563	n/a	n/a	n/a	n/a	n/a	n/a
2222.813	0.0	target	5	2222813	l	1	16.0	1	0.4018819	13
2223.046	0.5	BAD keypress	1	2223046	n/a	n/a	n/a	n/a	n/a	n/a
2223.296	0.0	keypress	3	2223296	n/a	n/a	n/a	n/a	n/a	n/a
2225.029	0.0	nontarget	4	2225029	v	0	45.0	n/a	n/a	13
2227.113	0.0	nontarget	4	2227113	c	0	22.0	n/a	n/a	13
2229.579	0.0	nontarget	4	2229579	u	0	45.0	n/a	n/a	13
2231.713	0.0	nontarget	4	2231713	ü	0	25.0	n/a	n/a	13
2233.662	0.0	nontarget	4	2233662	f	0	14.0	n/a	n/a	13
2236.129	0.0	nontarget	4	2236129	x	0	45.0	n/a	n/a	13
2238.512	0.0	nontarget	4	2238512	ß	0	40.0	n/a	n/a	13
2241.029	0.0	nontarget	4	2241029	q	0	48.0	n/a	n/a	13
2243.495	0.0	nontarget	4	2243495	ä	0	45.0	n/a	n/a	13
2245.512	0.0	nontarget	4	2245512	j	0	18.0	n/a	n/a	13
2247.478	0.0	nontarget	4	2247478	z	0	15.0	n/a	n/a	13
2250.028	0.0	nontarget	4	2250028	i	0	50.0	n/a	n/a	13
2252.578	0.0	nontarget	4	2252578	y	0	50.0	n/a	n/a	13
2254.545	0.0	nontarget	4	2254545	j	0	15.0	n/a	n/a	13
2256.845	0.0	nontarget	4	2256845	ä	0	35.0	n/a	n/a	13
2259.045	0.0	nontarget	4	2259045	m	0	29.0	n/a	n/a	13
2261.445	0.0	nontarget	4	2261445	l	0	41.0	n/a	n/a	13
2263.544	0.0	target	5	2263544	w	1	23.0	1	0.4354869	13
2263.778	0.5	BAD keypress	1	2263778	n/a	n/a	n/a	n/a	n/a	n/a
2264.028	0.0	keypress	3	2264028	n/a	n/a	n/a	n/a	n/a	n/a
2265.594	0.0	target	5	2265594	k	1	35.0	1	0.3854931	13
2265.794	0.5	BAD keypress	1	2265794	n/a	n/a	n/a	n/a	n/a	n/a
2266.044	0.0	keypress	3	2266044	n/a	n/a	n/a	n/a	n/a	n/a
2267.444	0.0	nontarget	4	2267444	u	0	25.0	n/a	n/a	13
2269.428	0.0	nontarget	4	2269428	s	0	16.0	n/a	n/a	13
2271.944	0.0	target	5	2271944	n	1	48.0	1	0.4353127	13
2272.194	0.5	BAD keypress	1	2272194	n/a	n/a	n/a	n/a	n/a	n/a
2272.444	0.0	keypress	3	2272444	n/a	n/a	n/a	n/a	n/a	n/a
2274.227	0.0	nontarget	4	2274227	e	0	48.0	n/a	n/a	13
2276.444	0.0	target	5	2276444	y	1	30.0	1	0.511215	13
2276.761	0.5	BAD keypress	1	2276761	n/a	n/a	n/a	n/a	n/a	n/a
2277.011	0.0	keypress	3	2277011	n/a	n/a	n/a	n/a	n/a	n/a
2278.277	0.0	nontarget	4	2278277	m	0	17.0	n/a	n/a	13
2280.344	0.0	nontarget	4	2280344	r	0	21.0	n/a	n/a	13
2282.677	0.0	nontarget	4	2282677	h	0	37.0	n/a	n/a	13
2284.76	0.0	nontarget	4	2284760	g	0	22.0	n/a	n/a	13
2287.027	0.0	nontarget	4	2287027	y	0	33.0	n/a	n/a	13
2289.093	0.0	nontarget	4	2289093	z	0	21.0	n/a	n/a	13
2291.493	0.0	nontarget	4	2291493	r	0	41.0	n/a	n/a	13
2293.743	0.0	nontarget	4	2293743	e	0	32.0	n/a	n/a	13
2296.06	0.0	target	5	2296060	y	1	36.0	1	0.4299727	13
2296.31	0.5	BAD keypress	1	2296310	n/a	n/a	n/a	n/a	n/a	n/a
2296.56	0.0	keypress	3	2296560	n/a	n/a	n/a	n/a	n/a	n/a
2297.96	0.0	nontarget	4	2297960	d	0	25.0	n/a	n/a	13
2300.126	0.0	nontarget	4	2300126	w	0	27.0	n/a	n/a	13
2302.509	0.0	nontarget	4	2302509	ö	0	40.0	n/a	n/a	13
2304.859	0.0	nontarget	4	2304859	o	0	38.0	n/a	n/a	13
2306.876	0.0	nontarget	4	2306876	d	0	18.0	n/a	n/a	13
2308.976	0.0	nontarget	4	2308976	c	0	23.0	n/a	n/a	13
2311.142	0.0	nontarget	4	2311142	s	0	27.0	n/a	n/a	13
2313.142	0.0	nontarget	4	2313142	ü	0	17.0	n/a	n/a	13
2315.326	0.0	nontarget	4	2315326	ß	0	28.0	n/a	n/a	13
2317.692	0.0	nontarget	4	2317692	v	0	39.0	n/a	n/a	13
2319.992	0.0	nontarget	4	2319992	t	0	35.0	n/a	n/a	13
2322.242	0.0	target	5	2322242	ä	1	32.0	1	0.454022	13
2322.509	0.5	BAD keypress	1	2322509	n/a	n/a	n/a	n/a	n/a	n/a
2322.759	0.0	keypress	3	2322759	n/a	n/a	n/a	n/a	n/a	n/a
2324.025	0.0	nontarget	4	2324025	w	0	17.0	n/a	n/a	13
2326.058	0.0	nontarget	4	2326058	d	0	19.0	n/a	n/a	13
2328.225	0.0	nontarget	4	2328225	r	0	27.0	n/a	n/a	13
2330.325	0.0	target	5	2330325	c	1	23.0	1	0.4344565	13
2330.575	0.5	BAD keypress	1	2330575	n/a	n/a	n/a	n/a	n/a	n/a
2330.825	0.0	keypress	3	2330825	n/a	n/a	n/a	n/a	n/a	n/a
2332.092	0.0	nontarget	4	2332092	s	0	17.0	n/a	n/a	13
2334.258	0.0	target	5	2334258	l	1	27.0	1	0.4850249	13
2334.542	0.5	BAD keypress	1	2334542	n/a	n/a	n/a	n/a	n/a	n/a
2334.792	0.0	keypress	3	2334792	n/a	n/a	n/a	n/a	n/a	n/a
2336.375	0.0	nontarget	4	2336375	c	0	36.0	n/a	n/a	13
2338.758	0.0	nontarget	4	2338758	t	0	40.0	n/a	n/a	13
2340.741	0.0	nontarget	4	2340741	ä	0	16.0	n/a	n/a	13
2342.841	0.0	nontarget	4	2342841	a	0	23.0	n/a	n/a	13
2345.041	0.0	nontarget	4	2345041	ü	0	29.0	n/a	n/a	13
2347.391	0.0	nontarget	4	2347391	d	0	38.0	n/a	n/a	13
2349.457	0.0	nontarget	4	2349457	j	0	21.0	n/a	n/a	13
2351.841	0.0	nontarget	4	2351841	z	0	40.0	n/a	n/a	13
2354.224	0.0	nontarget	4	2354224	o	0	40.0	n/a	n/a	13
2356.524	0.0	nontarget	4	2356524	t	0	35.0	n/a	n/a	13
2358.94	0.0	nontarget	4	2358940	d	0	42.0	n/a	n/a	13
2361.457	0.0	target	5	2361457	ü	1	48.0	1	0.404331	13
2361.69	0.5	BAD keypress	1	2361690	n/a	n/a	n/a	n/a	n/a	n/a
2361.94	0.0	keypress	3	2361940	n/a	n/a	n/a	n/a	n/a	n/a
2363.04	13.483000000000176	BAD_break	2	2363040	n/a	n/a	n/a	n/a	n/a	n/a
2377.023	0.0	target	5	2377023	y	1	30.0	1	0.5013066	14
2377.373	0.5	BAD keypress	1	2377373	n/a	n/a	n/a	n/a	n/a	n/a
2377.623	0.0	keypress	3	2377623	n/a	n/a	n/a	n/a	n/a	n/a
2379.156	0.0	target	5	2379156	u	1	32.0	1	0.3519214	14
2379.34	0.5	BAD keypress	1	2379340	n/a	n/a	n/a	n/a	n/a	n/a
2379.59	0.0	keypress	3	2379590	n/a	n/a	n/a	n/a	n/a	n/a
2380.956	0.0	nontarget	4	2380956	d	0	23.0	n/a	n/a	14
2383.423	0.0	target	5	2383423	f	1	45.0	1	0.4211255	14
2383.656	0.5	BAD keypress	1	2383656	n/a	n/a	n/a	n/a	n/a	n/a
2383.906	0.0	keypress	3	2383906	n/a	n/a	n/a	n/a	n/a	n/a
2385.673	0.0	nontarget	4	2385673	v	0	47.0	n/a	n/a	14
2387.956	0.0	nontarget	4	2387956	ü	0	34.0	n/a	n/a	14
2390.456	0.0	nontarget	4	2390456	f	0	47.0	n/a	n/a	14
2392.956	0.0	nontarget	4	2392956	a	0	47.0	n/a	n/a	14
2395.455	0.0	nontarget	4	2395455	n	0	47.0	n/a	n/a	14
2397.572	0.0	target	5	2397572	n	1	24.0	1	0.4147691	14
2397.805	0.5	BAD keypress	1	2397805	n/a	n/a	n/a	n/a	n/a	n/a
2398.055	0.0	keypress	3	2398055	n/a	n/a	n/a	n/a	n/a	n/a
2399.422	0.0	nontarget	4	2399422	p	0	23.0	n/a	n/a	14
2401.605	0.0	target	5	2401605	k	1	28.0	1	0.3653638	14
2401.789	0.5	BAD keypress	1	2401789	n/a	n/a	n/a	n/a	n/a	n/a
2402.039	0.0	keypress	3	2402039	n/a	n/a	n/a	n/a	n/a	n/a
2403.805	0.0	nontarget	4	2403805	ö	0	47.0	n/a	n/a	14
2406.172	0.0	nontarget	4	2406172	t	0	39.0	n/a	n/a	14
2408.188	0.0	nontarget	4	2408188	g	0	18.0	n/a	n/a	14
2410.305	0.0	nontarget	4	2410305	b	0	24.0	n/a	n/a	14
2412.688	0.0	nontarget	4	2412688	e	0	40.0	n/a	n/a	14
2415.205	0.0	nontarget	4	2415205	t	0	48.0	n/a	n/a	14
2417.405	0.0	nontarget	4	2417405	m	0	29.0	n/a	n/a	14
2419.788	0.0	target	5	2419788	j	1	40.0	1	0.4855912	14
2420.104	0.5	BAD keypress	1	2420104	n/a	n/a	n/a	n/a	n/a	n/a
2420.354	0.0	keypress	3	2420354	n/a	n/a	n/a	n/a	n/a	n/a
2422.154	0.0	nontarget	4	2422154	a	0	49.0	n/a	n/a	14
2424.554	0.0	nontarget	4	2424554	w	0	41.0	n/a	n/a	14
2426.771	0.0	nontarget	4	2426771	e	0	30.0	n/a	n/a	14
2429.121	0.0	nontarget	4	2429121	t	0	38.0	n/a	n/a	14
2431.287	0.0	nontarget	4	2431287	ö	0	27.0	n/a	n/a	14
2433.537	0.0	target	5	2433537	a	1	32.0	1	0.3831843	14
2433.721	0.5	BAD keypress	1	2433721	n/a	n/a	n/a	n/a	n/a	n/a
2433.971	0.0	keypress	3	2433971	n/a	n/a	n/a	n/a	n/a	n/a
2435.337	0.0	target	5	2435337	k	1	23.0	1	0.535198	14
2435.687	0.5	BAD keypress	1	2435687	n/a	n/a	n/a	n/a	n/a	n/a
2435.937	0.0	keypress	3	2435937	n/a	n/a	n/a	n/a	n/a	n/a
2437.687	0.0	nontarget	4	2437687	o	0	45.0	n/a	n/a	14
2439.954	0.0	nontarget	4	2439954	s	0	33.0	n/a	n/a	14
2442.337	0.0	target	5	2442337	c	1	40.0	1	0.4309909	14
2442.587	0.5	BAD keypress	1	2442587	n/a	n/a	n/a	n/a	n/a	n/a
2442.837	0.0	keypress	3	2442837	n/a	n/a	n/a	n/a	n/a	n/a
2444.32	0.0	nontarget	4	2444320	i	0	30.0	n/a	n/a	14
2446.27	0.0	nontarget	4	2446270	m	0	14.0	n/a	n/a	14
2448.353	0.0	nontarget	4	2448353	d	0	22.0	n/a	n/a	14
2450.903	0.0	target	5	2450903	h	1	50.0	1	0.4080742	14
2451.137	0.5	BAD keypress	1	2451137	n/a	n/a	n/a	n/a	n/a	n/a
2451.387	0.0	keypress	3	2451387	n/a	n/a	n/a	n/a	n/a	n/a
2452.77	0.0	nontarget	4	2452770	b	0	24.0	n/a	n/a	14
2455.303	0.0	nontarget	4	2455303	i	0	49.0	n/a	n/a	14
2457.436	0.0	target	5	2457436	c	1	25.0	1	0.4824573	14
2457.736	0.5	BAD keypress	1	2457736	n/a	n/a	n/a	n/a	n/a	n/a
2457.986	0.0	keypress	3	2457986	n/a	n/a	n/a	n/a	n/a	n/a
2459.303	0.0	nontarget	4	2459303	t	0	20.0	n/a	n/a	14
2461.703	0.0	nontarget	4	2461703	o	0	41.0	n/a	n/a	14
2464.036	0.0	nontarget	4	2464036	w	0	37.0	n/a	n/a	14
2466.536	0.0	nontarget	4	2466536	c	0	47.0	n/a	n/a	14
2468.669	0.0	nontarget	4	2468669	p	0	25.0	n/a	n/a	14
2470.786	0.0	nontarget	4	2470786	z	0	24.0	n/a	n/a	14
2472.835	0.0	nontarget	4	2472835	a	0	20.0	n/a	n/a	14
2475.285	0.0	nontarget	4	2475285	g	0	44.0	n/a	n/a	14
2477.419	0.0	nontarget	4	2477419	ö	0	25.0	n/a	n/a	14
2479.469	0.0	nontarget	4	2479469	b	0	20.0	n/a	n/a	14
2481.868	0.0	target	5	2481868	i	1	41.0	1	0.4327778	14
2482.118	0.5	BAD keypress	1	2482118	n/a	n/a	n/a	n/a	n/a	n/a
2482.368	0.0	keypress	3	2482368	n/a	n/a	n/a	n/a	n/a	n/a
2484.185	0.0	nontarget	4	2484185	a	0	50.0	n/a	n/a	14
2486.435	0.0	nontarget	4	2486435	q	0	32.0	n/a	n/a	14
2488.901	0.0	nontarget	4	2488901	b	0	45.0	n/a	n/a	14
2491.251	0.0	nontarget	4	2491251	z	0	38.0	n/a	n/a	14
2493.368	0.0	nontarget	4	2493368	l	0	24.0	n/a	n/a	14
2495.768	0.0	target	5	2495768	ü	1	41.0	1	0.4043006	14
2496.018	0.5	BAD keypress	1	2496018	n/a	n/a	n/a	n/a	n/a	n/a
2496.268	0.0	keypress	3	2496268	n/a	n/a	n/a	n/a	n/a	n/a
2497.601	0.0	nontarget	4	2497601	h	0	21.0	n/a	n/a	14
2499.868	0.0	nontarget	4	2499868	k	0	33.0	n/a	n/a	14
2502.051	0.0	target	5	2502051	i	1	28.0	1	0.4567705	14
2502.351	0.5	BAD keypress	1	2502351	n/a	n/a	n/a	n/a	n/a	n/a
2502.601	0.0	keypress	3	2502601	n/a	n/a	n/a	n/a	n/a	n/a
2504.134	0.0	nontarget	4	2504134	r	0	33.0	n/a	n/a	14
2506.567	0.0	nontarget	4	2506567	q	0	43.0	n/a	n/a	14
2508.767	0.0	nontarget	4	2508767	l	0	29.0	n/a	n/a	14
2509.867	10.89200000000028	BAD_break	2	2509867	n/a	n/a	n/a	n/a	n/a	n/a
