onset	duration	trial_type	value	sample	stimulus	target	blank_jitter_frames	accuracy	response_time	block
0.0	230.651	BAD_break	2	0	n/a	n/a	n/a	n/a	n/a	n/a
231.151	0.0	target	5	231151	y	1	25.0	1	0.4899666	1
231.567	0.5	BAD keypress	1	231567	n/a	n/a	n/a	n/a	n/a	n/a
231.817	0.0	keypress	3	231817	n/a	n/a	n/a	n/a	n/a	n/a
233.534	0.0	nontarget	4	233534	ö	0	43.0	n/a	n/a	1
235.517	0.0	nontarget	4	235517	o	0	16.0	n/a	n/a	1
238.05	0.0	nontarget	4	238050	t	0	49.0	n/a	n/a	1
240.1	0.0	nontarget	4	240100	c	0	20.0	n/a	n/a	1
242.267	0.0	target	5	242267	p	1	27.0	1	0.5089622	1
242.684	0.5	BAD keypress	1	242684	n/a	n/a	n/a	n/a	n/a	n/a
242.934	0.0	keypress	3	242934	n/a	n/a	n/a	n/a	n/a	n/a
244.533	0.0	nontarget	4	244533	ö	0	37.0	n/a	n/a	1
246.8	0.0	target	5	246800	u	1	33.0	1	0.4556018	1
247.2	0.5	BAD keypress	1	247200	n/a	n/a	n/a	n/a	n/a	n/a
247.45	0.0	keypress	3	247450	n/a	n/a	n/a	n/a	n/a	n/a
248.75	0.0	nontarget	4	248750	a	0	19.0	n/a	n/a	1
250.7	0.0	nontarget	4	250700	e	0	14.0	n/a	n/a	1
252.65	0.0	nontarget	4	252650	i	0	14.0	n/a	n/a	1
255.133	0.0	nontarget	4	255133	x	0	46.0	n/a	n/a	1
257.433	0.0	nontarget	4	257433	k	0	35.0	n/a	n/a	1
259.499	0.0	nontarget	4	259499	n	0	21.0	n/a	n/a	1
261.649	0.0	nontarget	4	261649	j	0	26.0	n/a	n/a	1
263.766	0.0	nontarget	4	263766	w	0	24.0	n/a	n/a	1
265.816	0.0	nontarget	4	265816	r	0	20.0	n/a	n/a	1
268.082	0.0	nontarget	4	268082	c	0	33.0	n/a	n/a	1
270.432	0.0	nontarget	4	270432	i	0	38.0	n/a	n/a	1
272.382	0.0	nontarget	4	272382	g	0	14.0	n/a	n/a	1
274.599	0.0	nontarget	4	274599	ö	0	30.0	n/a	n/a	1
276.615	0.0	nontarget	4	276615	c	0	18.0	n/a	n/a	1
278.565	0.0	target	5	278565	i	1	14.0	1	0.5442242	1
279.015	0.5	BAD keypress	1	279015	n/a	n/a	n/a	n/a	n/a	n/a
279.265	0.0	keypress	3	279265	n/a	n/a	n/a	n/a	n/a	n/a
280.715	0.0	nontarget	4	280715	e	0	28.0	n/a	n/a	1
283.165	0.0	nontarget	4	283165	y	0	44.0	n/a	n/a	1
285.182	0.0	target	5	285182	s	1	18.0	1	0.5033626	1
285.615	0.5	BAD keypress	1	285615	n/a	n/a	n/a	n/a	n/a	n/a
285.865	0.0	keypress	3	285865	n/a	n/a	n/a	n/a	n/a	n/a
287.232	0.0	nontarget	4	287232	ä	0	23.0	n/a	n/a	1
289.265	0.0	nontarget	4	289265	l	0	19.0	n/a	n/a	1
291.531	0.0	nontarget	4	291531	y	0	33.0	n/a	n/a	1
293.515	0.0	target	5	293515	b	1	16.0	1	0.4898139	1
293.948	0.5	BAD keypress	1	293948	n/a	n/a	n/a	n/a	n/a	n/a
294.198	0.0	keypress	3	294198	n/a	n/a	n/a	n/a	n/a	n/a
295.481	0.0	nontarget	4	295481	w	0	18.0	n/a	n/a	1
297.548	0.0	nontarget	4	297548	o	0	21.0	n/a	n/a	1
299.564	0.0	nontarget	4	299564	d	0	18.0	n/a	n/a	1
301.698	0.0	nontarget	4	301698	v	0	25.0	n/a	n/a	1
303.931	0.0	nontarget	4	303931	ß	0	31.0	n/a	n/a	1
306.364	0.0	nontarget	4	306364	b	0	43.0	n/a	n/a	1
308.897	0.0	nontarget	4	308897	o	0	49.0	n/a	n/a	1
311.214	0.0	nontarget	4	311214	g	0	36.0	n/a	n/a	1
313.247	0.0	nontarget	4	313247	ü	0	19.0	n/a	n/a	1
315.43	0.0	nontarget	4	315430	k	0	28.0	n/a	n/a	1
317.947	0.0	nontarget	4	317947	l	0	48.0	n/a	n/a	1
320.347	0.0	nontarget	4	320347	f	0	41.0	n/a	n/a	1
322.463	0.0	nontarget	4	322463	e	0	24.0	n/a	n/a	1
324.897	0.0	nontarget	4	324897	g	0	43.0	n/a	n/a	1
327.413	0.0	nontarget	4	327413	b	0	48.0	n/a	n/a	1
329.58	0.0	nontarget	4	329580	ü	0	27.0	n/a	n/a	1
332.13	0.0	target	5	332130	d	1	50.0	1	0.5124108	1
332.563	0.5	BAD keypress	1	332563	n/a	n/a	n/a	n/a	n/a	n/a
332.813	0.0	keypress	3	332813	n/a	n/a	n/a	n/a	n/a	n/a
334.396	0.0	target	5	334396	b	1	36.0	1	0.4856777	1
334.813	0.5	BAD keypress	1	334813	n/a	n/a	n/a	n/a	n/a	n/a
335.063	0.0	keypress	3	335063	n/a	n/a	n/a	n/a	n/a	n/a
336.363	0.0	nontarget	4	336363	z	0	18.0	n/a	n/a	1
338.663	0.0	nontarget	4	338663	j	0	35.0	n/a	n/a	1
340.962	0.0	target	5	340962	u	1	35.0	1	0.5108597	1
341.396	0.5	BAD keypress	1	341396	n/a	n/a	n/a	n/a	n/a	n/a
341.646	0.0	keypress	3	341646	n/a	n/a	n/a	n/a	n/a	n/a
342.946	0.0	nontarget	4	342946	v	0	19.0	n/a	n/a	1
345.329	0.0	nontarget	4	345329	l	0	40.0	n/a	n/a	1
347.496	0.0	nontarget	4	347496	f	0	27.0	n/a	n/a	1
349.962	0.0	target	5	349962	s	1	45.0	1	0.4385844	1
350.329	0.5	BAD keypress	1	350329	n/a	n/a	n/a	n/a	n/a	n/a
350.579	0.0	keypress	3	350579	n/a	n/a	n/a	n/a	n/a	n/a
352.245	0.0	nontarget	4	352245	u	0	41.0	n/a	n/a	1
354.362	0.0	nontarget	4	354362	b	0	24.0	n/a	n/a	1
356.595	0.0	nontarget	4	356595	i	0	31.0	n/a	n/a	1
358.878	0.0	target	5	358878	ä	1	34.0	1	0.46574	1
359.312	0.5	BAD keypress	1	359312	n/a	n/a	n/a	n/a	n/a	n/a
359.562	0.0	keypress	3	359562	n/a	n/a	n/a	n/a	n/a	n/a
361.195	0.0	nontarget	4	361195	x	0	39.0	n/a	n/a	1
363.461	0.0	nontarget	4	363461	n	0	33.0	n/a	n/a	1
365.995	0.0	nontarget	4	365995	f	0	49.0	n/a	n/a	1
368.445	0.0	nontarget	4	368445	m	0	44.0	n/a	n/a	1
370.744	0.0	target	5	370744	q	1	35.0	1	0.4068704	1
371.111	0.5	BAD keypress	1	371111	n/a	n/a	n/a	n/a	n/a	n/a
371.361	0.0	keypress	3	371361	n/a	n/a	n/a	n/a	n/a	n/a
372.811	0.0	target	5	372811	x	1	28.0	1	0.5161094	1
373.244	0.5	BAD keypress	1	373244	n/a	n/a	n/a	n/a	n/a	n/a
373.494	0.0	keypress	3	373494	n/a	n/a	n/a	n/a	n/a	n/a
374.994	0.0	target	5	374994	j	1	31.0	1	0.4607724	1
375.411	0.5	BAD keypress	1	375411	n/a	n/a	n/a	n/a	n/a	n/a
375.661	0.0	keypress	3	375661	n/a	n/a	n/a	n/a	n/a	n/a
376.761	44.89799999999997	BAD_break	2	376761	n/a	n/a	n/a	n/a	n/a	n/a
422.159	0.0	nontarget	4	422159	a	0	14.0	n/a	n/a	2
424.342	0.0	nontarget	4	424342	h	0	28.0	n/a	n/a	2
426.409	0.0	nontarget	4	426409	e	0	21.0	n/a	n/a	2
428.559	0.0	nontarget	4	428559	v	0	26.0	n/a	n/a	2
430.625	0.0	nontarget	4	430625	l	0	21.0	n/a	n/a	2
432.592	0.0	nontarget	4	432592	f	0	15.0	n/a	n/a	2
434.642	0.0	nontarget	4	434642	k	0	20.0	n/a	n/a	2
436.675	0.0	nontarget	4	436675	v	0	19.0	n/a	n/a	2
438.791	0.0	target	5	438791	y	1	24.0	1	0.4512922	2
439.208	0.5	BAD keypress	1	439208	n/a	n/a	n/a	n/a	n/a	n/a
439.458	0.0	keypress	3	439458	n/a	n/a	n/a	n/a	n/a	n/a
441.258	0.0	nontarget	4	441258	m	0	48.0	n/a	n/a	2
443.275	0.0	nontarget	4	443275	ä	0	18.0	n/a	n/a	2
445.308	0.0	nontarget	4	445308	r	0	19.0	n/a	n/a	2
447.358	0.0	target	5	447358	q	1	20.0	1	0.4603802	2
447.774	0.5	BAD keypress	1	447774	n/a	n/a	n/a	n/a	n/a	n/a
448.024	0.0	keypress	3	448024	n/a	n/a	n/a	n/a	n/a	n/a
449.474	0.0	target	5	449474	o	1	27.0	1	0.5677218	2
449.958	0.5	BAD keypress	1	449958	n/a	n/a	n/a	n/a	n/a	n/a
450.208	0.0	keypress	3	450208	n/a	n/a	n/a	n/a	n/a	n/a
451.508	0.0	nontarget	4	451508	g	0	19.0	n/a	n/a	2
453.791	0.0	nontarget	4	453791	m	0	34.0	n/a	n/a	2
456.324	0.0	nontarget	4	456324	ä	0	49.0	n/a	n/a	2
458.491	0.0	nontarget	4	458491	u	0	27.0	n/a	n/a	2
460.64	0.0	nontarget	4	460640	q	0	26.0	n/a	n/a	2
463.09	0.0	target	5	463090	e	1	44.0	1	0.4387583	2
463.49	0.5	BAD keypress	1	463490	n/a	n/a	n/a	n/a	n/a	n/a
463.74	0.0	keypress	3	463740	n/a	n/a	n/a	n/a	n/a	n/a
465.107	0.0	nontarget	4	465107	j	0	23.0	n/a	n/a	2
467.174	0.0	nontarget	4	467174	k	0	21.0	n/a	n/a	2
469.557	0.0	nontarget	4	469557	h	0	37.0	n/a	n/a	2
471.673	0.0	target	5	471673	p	1	24.0	1	0.4632408	2
472.073	0.5	BAD keypress	1	472073	n/a	n/a	n/a	n/a	n/a	n/a
472.323	0.0	keypress	3	472323	n/a	n/a	n/a	n/a	n/a	n/a
473.84	0.0	nontarget	4	473840	e	0	32.0	n/a	n/a	2
476.39	0.0	nontarget	4	476390	w	0	50.0	n/a	n/a	2
478.89	0.0	nontarget	4	478890	ü	0	47.0	n/a	n/a	2
480.873	0.0	nontarget	4	480873	r	0	16.0	n/a	n/a	2
483.256	0.0	nontarget	4	483256	ä	0	40.0	n/a	n/a	2
485.223	0.0	nontarget	4	485223	t	0	15.0	n/a	n/a	2
487.406	0.0	nontarget	4	487406	f	0	28.0	n/a	n/a	2
489.739	0.0	nontarget	4	489739	o	0	37.0	n/a	n/a	2
491.806	0.0	target	5	491806	v	1	21.0	1	0.4894246	2
492.239	0.5	BAD keypress	1	492239	n/a	n/a	n/a	n/a	n/a	n/a
492.489	0.0	keypress	3	492489	n/a	n/a	n/a	n/a	n/a	n/a
493.872	0.0	nontarget	4	493872	h	0	24.0	n/a	n/a	2
496.006	0.0	nontarget	4	496006	ß	0	25.0	n/a	n/a	2
498.189	0.0	nontarget	4	498189	ä	0	28.0	n/a	n/a	2
500.322	0.0	nontarget	4	500322	z	0	25.0	n/a	n/a	2
502.689	0.0	target	5	502689	ä	1	39.0	1	0.4538278	2
503.155	0.5	BAD keypress	1	503155	n/a	n/a	n/a	n/a	n/a	n/a
503.405	0.0	keypress	3	503405	n/a	n/a	n/a	n/a	n/a	n/a
504.705	0.0	nontarget	4	504705	c	0	19.0	n/a	n/a	2
507.155	0.0	nontarget	4	507155	d	0	44.0	n/a	n/a	2
509.655	0.0	nontarget	4	509655	u	0	47.0	n/a	n/a	2
512.055	0.0	nontarget	4	512055	b	0	41.0	n/a	n/a	2
514.271	0.0	nontarget	4	514271	ö	0	30.0	n/a	n/a	2
516.738	0.0	nontarget	4	516738	i	0	45.0	n/a	n/a	2
519.188	0.0	nontarget	4	519188	l	0	44.0	n/a	n/a	2
521.304	0.0	nontarget	4	521304	h	0	24.0	n/a	n/a	2
523.421	0.0	target	5	523421	i	1	24.0	1	0.4560162	2
523.854	0.5	BAD keypress	1	523854	n/a	n/a	n/a	n/a	n/a	n/a
524.104	0.0	keypress	3	524104	n/a	n/a	n/a	n/a	n/a	n/a
525.388	0.0	nontarget	4	525388	r	0	18.0	n/a	n/a	2
527.854	0.0	nontarget	4	527854	l	0	45.0	n/a	n/a	2
529.804	0.0	nontarget	4	529804	p	0	14.0	n/a	n/a	2
531.971	0.0	nontarget	4	531971	f	0	27.0	n/a	n/a	2
534.454	0.0	target	5	534454	n	1	46.0	1	0.4624593	2
534.921	0.5	BAD keypress	1	534921	n/a	n/a	n/a	n/a	n/a	n/a
535.171	0.0	keypress	3	535171	n/a	n/a	n/a	n/a	n/a	n/a
536.504	0.0	nontarget	4	536504	q	0	21.0	n/a	n/a	2
538.637	0.0	nontarget	4	538637	w	0	25.0	n/a	n/a	2
540.587	0.0	nontarget	4	540587	m	0	14.0	n/a	n/a	2
542.887	0.0	nontarget	4	542887	h	0	35.0	n/a	n/a	2
545.087	0.0	nontarget	4	545087	g	0	29.0	n/a	n/a	2
547.103	0.0	target	5	547103	q	1	18.0	0	n/a	2
549.653	0.0	nontarget	4	549653	x	0	19.0	n/a	n/a	2
551.72	0.0	nontarget	4	551720	w	0	21.0	n/a	n/a	2
553.903	0.0	nontarget	4	553903	p	0	28.0	n/a	n/a	2
556.07	0.0	target	5	556070	y	1	27.0	1	0.4772998	2
556.503	0.5	BAD keypress	1	556503	n/a	n/a	n/a	n/a	n/a	n/a
556.753	0.0	keypress	3	556753	n/a	n/a	n/a	n/a	n/a	n/a
558.003	0.0	nontarget	4	558003	b	0	16.0	n/a	n/a	2
560.336	0.0	nontarget	4	560336	r	0	37.0	n/a	n/a	2
562.286	0.0	nontarget	4	562286	d	0	14.0	n/a	n/a	2
564.353	0.0	target	5	564353	c	1	21.0	1	0.3858048	2
564.753	0.5	BAD keypress	1	564753	n/a	n/a	n/a	n/a	n/a	n/a
565.003	0.0	keypress	3	565003	n/a	n/a	n/a	n/a	n/a	n/a
566.103	59.962999999999965	BAD_break	2	566103	n/a	n/a	n/a	n/a	n/a	n/a
626.566	0.0	nontarget	4	626566	q	0	21.0	n/a	n/a	3
628.916	0.0	nontarget	4	628916	w	0	38.0	n/a	n/a	3
630.933	0.0	nontarget	4	630933	v	0	18.0	n/a	n/a	3
633.066	0.0	nontarget	4	633066	f	0	25.0	n/a	n/a	3
635.149	0.0	target	5	635149	ä	1	22.0	1	0.5121396	3
635.633	0.5	BAD keypress	1	635633	n/a	n/a	n/a	n/a	n/a	n/a
635.883	0.0	keypress	3	635883	n/a	n/a	n/a	n/a	n/a	n/a
637.466	0.0	nontarget	4	637466	t	0	35.0	n/a	n/a	3
639.716	0.0	nontarget	4	639716	m	0	32.0	n/a	n/a	3
642.249	0.0	target	5	642249	n	1	49.0	1	0.4359461	3
642.682	0.5	BAD keypress	1	642682	n/a	n/a	n/a	n/a	n/a	n/a
642.932	0.0	keypress	3	642932	n/a	n/a	n/a	n/a	n/a	n/a
644.316	0.0	target	5	644316	ü	1	23.0	0	n/a	3
646.799	0.0	nontarget	4	646799	c	0	15.0	n/a	n/a	3
648.799	0.0	nontarget	4	648799	r	0	17.0	n/a	n/a	3
651.215	0.0	nontarget	4	651215	s	0	42.0	n/a	n/a	3
653.332	0.0	nontarget	4	653332	u	0	24.0	n/a	n/a	3
655.732	0.0	nontarget	4	655732	l	0	41.0	n/a	n/a	3
658.082	0.0	nontarget	4	658082	ö	0	38.0	n/a	n/a	3
660.032	0.0	nontarget	4	660032	a	0	14.0	n/a	n/a	3
662.582	0.0	nontarget	4	662582	p	0	50.0	n/a	n/a	3
664.698	0.0	nontarget	4	664698	k	0	24.0	n/a	n/a	3
666.765	0.0	nontarget	4	666765	ä	0	21.0	n/a	n/a	3
668.781	0.0	nontarget	4	668781	u	0	18.0	n/a	n/a	3
671.114	0.0	nontarget	4	671114	g	0	37.0	n/a	n/a	3
673.314	0.0	nontarget	4	673314	h	0	29.0	n/a	n/a	3
675.781	0.0	nontarget	4	675781	e	0	45.0	n/a	n/a	3
678.197	0.0	nontarget	4	678197	d	0	42.0	n/a	n/a	3
680.714	0.0	nontarget	4	680714	q	0	48.0	n/a	n/a	3
683.214	0.0	nontarget	4	683214	b	0	47.0	n/a	n/a	3
685.647	0.0	nontarget	4	685647	w	0	43.0	n/a	n/a	3
687.73	0.0	nontarget	4	687730	ü	0	22.0	n/a	n/a	3
690.147	0.0	nontarget	4	690147	z	0	42.0	n/a	n/a	3
692.48	0.0	nontarget	4	692480	v	0	37.0	n/a	n/a	3
694.78	0.0	target	5	694780	q	1	35.0	1	0.4293895	3
695.18	0.5	BAD keypress	1	695180	n/a	n/a	n/a	n/a	n/a	n/a
695.43	0.0	keypress	3	695430	n/a	n/a	n/a	n/a	n/a	n/a
696.68	0.0	target	5	696680	g	1	16.0	1	0.4654012	3
697.097	0.5	BAD keypress	1	697097	n/a	n/a	n/a	n/a	n/a	n/a
697.347	0.0	keypress	3	697347	n/a	n/a	n/a	n/a	n/a	n/a
699.13	0.0	nontarget	4	699130	n	0	48.0	n/a	n/a	3
701.28	0.0	target	5	701280	ü	1	26.0	1	0.409269	3
701.68	0.5	BAD keypress	1	701680	n/a	n/a	n/a	n/a	n/a	n/a
701.93	0.0	keypress	3	701930	n/a	n/a	n/a	n/a	n/a	n/a
703.33	0.0	nontarget	4	703330	ß	0	25.0	n/a	n/a	3
705.546	0.0	target	5	705546	ä	1	30.0	1	0.4625381	3
705.98	0.5	BAD keypress	1	705980	n/a	n/a	n/a	n/a	n/a	n/a
706.23	0.0	keypress	3	706230	n/a	n/a	n/a	n/a	n/a	n/a
707.613	0.0	nontarget	4	707613	w	0	24.0	n/a	n/a	3
709.746	0.0	nontarget	4	709746	ü	0	25.0	n/a	n/a	3
711.846	0.0	nontarget	4	711846	ä	0	23.0	n/a	n/a	3
714.279	0.0	nontarget	4	714279	n	0	43.0	n/a	n/a	3
716.712	0.0	nontarget	4	716712	j	0	43.0	n/a	n/a	3
719.046	0.0	nontarget	4	719046	i	0	37.0	n/a	n/a	3
721.562	0.0	nontarget	4	721562	b	0	48.0	n/a	n/a	3
723.912	0.0	nontarget	4	723912	z	0	38.0	n/a	n/a	3
726.195	0.0	nontarget	4	726195	f	0	34.0	n/a	n/a	3
728.179	0.0	nontarget	4	728179	ü	0	16.0	n/a	n/a	3
730.445	0.0	nontarget	4	730445	r	0	33.0	n/a	n/a	3
732.728	0.0	nontarget	4	732728	ö	0	34.0	n/a	n/a	3
734.762	0.0	target	5	734762	m	1	19.0	1	0.4931212	3
735.212	0.5	BAD keypress	1	735212	n/a	n/a	n/a	n/a	n/a	n/a
735.462	0.0	keypress	3	735462	n/a	n/a	n/a	n/a	n/a	n/a
737.062	0.0	nontarget	4	737062	ü	0	37.0	n/a	n/a	3
739.028	0.0	nontarget	4	739028	z	0	15.0	n/a	n/a	3
741.311	0.0	target	5	741311	o	1	34.0	1	0.4389455	3
741.695	0.5	BAD keypress	1	741695	n/a	n/a	n/a	n/a	n/a	n/a
741.945	0.0	keypress	3	741945	n/a	n/a	n/a	n/a	n/a	n/a
743.161	0.0	nontarget	4	743161	p	0	14.0	n/a	n/a	3
745.378	0.0	nontarget	4	745378	j	0	30.0	n/a	n/a	3
747.428	0.0	nontarget	4	747428	k	0	20.0	n/a	n/a	3
749.394	0.0	nontarget	4	749394	a	0	15.0	n/a	n/a	3
751.728	0.0	nontarget	4	751728	i	0	37.0	n/a	n/a	3
753.811	0.0	nontarget	4	753811	b	0	22.0	n/a	n/a	3
756.061	0.0	target	5	756061	j	1	32.0	1	0.440665	3
756.444	0.5	BAD keypress	1	756444	n/a	n/a	n/a	n/a	n/a	n/a
756.694	0.0	keypress	3	756694	n/a	n/a	n/a	n/a	n/a	n/a
758.377	0.0	nontarget	4	758377	w	0	42.0	n/a	n/a	3
760.327	0.0	nontarget	4	760327	x	0	14.0	n/a	n/a	3
762.794	0.0	nontarget	4	762794	q	0	45.0	n/a	n/a	3
765.11	0.0	target	5	765110	u	1	36.0	1	0.4463572	3
765.544	0.5	BAD keypress	1	765544	n/a	n/a	n/a	n/a	n/a	n/a
765.794	0.0	keypress	3	765794	n/a	n/a	n/a	n/a	n/a	n/a
767.277	0.0	nontarget	4	767277	u	0	30.0	n/a	n/a	3
769.527	0.0	target	5	769527	k	1	32.0	1	0.4617167	3
769.91	0.5	BAD keypress	1	769910	n/a	n/a	n/a	n/a	n/a	n/a
770.16	0.0	keypress	3	770160	n/a	n/a	n/a	n/a	n/a	n/a
771.76	0.0	nontarget	4	771760	i	0	37.0	n/a	n/a	3
772.86	61.09699999999998	BAD_break	2	772860	n/a	n/a	n/a	n/a	n/a	n/a
834.457	0.0	nontarget	4	834457	l	0	44.0	n/a	n/a	4
836.44	0.0	target	5	836440	x	1	16.0	1	0.4554414	4
836.841	0.5	BAD keypress	1	836841	n/a	n/a	n/a	n/a	n/a	n/a
837.091	0.0	keypress	3	837091	n/a	n/a	n/a	n/a	n/a	n/a
838.44	0.0	target	5	838440	l	1	21.0	1	0.4873654	4
838.857	0.5	BAD keypress	1	838857	n/a	n/a	n/a	n/a	n/a	n/a
839.107	0.0	keypress	3	839107	n/a	n/a	n/a	n/a	n/a	n/a
840.574	0.0	nontarget	4	840574	v	0	28.0	n/a	n/a	4
842.89	0.0	nontarget	4	842890	o	0	36.0	n/a	n/a	4
845.107	0.0	nontarget	4	845107	c	0	30.0	n/a	n/a	4
847.473	0.0	nontarget	4	847473	p	0	39.0	n/a	n/a	4
849.773	0.0	nontarget	4	849773	h	0	35.0	n/a	n/a	4
851.856	0.0	nontarget	4	851856	q	0	22.0	n/a	n/a	4
854.306	0.0	nontarget	4	854306	o	0	44.0	n/a	n/a	4
856.273	0.0	nontarget	4	856273	j	0	15.0	n/a	n/a	4
858.689	0.0	nontarget	4	858689	n	0	42.0	n/a	n/a	4
861.123	0.0	nontarget	4	861123	ü	0	43.0	n/a	n/a	4
863.573	0.0	nontarget	4	863573	m	0	44.0	n/a	n/a	4
865.839	0.0	nontarget	4	865839	b	0	33.0	n/a	n/a	4
868.122	0.0	nontarget	4	868122	x	0	34.0	n/a	n/a	4
870.656	0.0	target	5	870656	c	1	49.0	1	0.4459611	4
871.039	0.5	BAD keypress	1	871039	n/a	n/a	n/a	n/a	n/a	n/a
871.289	0.0	keypress	3	871289	n/a	n/a	n/a	n/a	n/a	n/a
872.822	0.0	nontarget	4	872822	s	0	33.0	n/a	n/a	4
875.305	0.0	nontarget	4	875305	c	0	46.0	n/a	n/a	4
877.705	0.0	nontarget	4	877705	i	0	41.0	n/a	n/a	4
880.189	0.0	nontarget	4	880189	y	0	46.0	n/a	n/a	4
882.405	0.0	nontarget	4	882405	e	0	30.0	n/a	n/a	4
884.638	0.0	nontarget	4	884638	p	0	31.0	n/a	n/a	4
886.822	0.0	nontarget	4	886822	g	0	28.0	n/a	n/a	4
888.971	0.0	target	5	888971	r	1	26.0	1	0.4648477	4
889.372	0.5	BAD keypress	1	889372	n/a	n/a	n/a	n/a	n/a	n/a
889.622	0.0	keypress	3	889622	n/a	n/a	n/a	n/a	n/a	n/a
891.138	0.0	nontarget	4	891138	h	0	32.0	n/a	n/a	4
893.221	0.0	nontarget	4	893221	r	0	22.0	n/a	n/a	4
895.255	0.0	nontarget	4	895255	w	0	19.0	n/a	n/a	4
897.538	0.0	target	5	897538	f	1	34.0	1	0.4419899	4
897.921	0.5	BAD keypress	1	897921	n/a	n/a	n/a	n/a	n/a	n/a
898.171	0.0	keypress	3	898171	n/a	n/a	n/a	n/a	n/a	n/a
899.554	0.0	nontarget	4	899554	ü	0	24.0	n/a	n/a	4
901.821	0.0	nontarget	4	901821	ö	0	33.0	n/a	n/a	4
904.137	0.0	nontarget	4	904137	d	0	36.0	n/a	n/a	4
906.187	0.0	nontarget	4	906187	t	0	20.0	n/a	n/a	4
908.171	0.0	nontarget	4	908171	f	0	16.0	n/a	n/a	4
910.621	0.0	nontarget	4	910621	r	0	44.0	n/a	n/a	4
912.77	0.0	nontarget	4	912770	k	0	26.0	n/a	n/a	4
915.054	0.0	nontarget	4	915054	ö	0	34.0	n/a	n/a	4
917.47	0.0	target	5	917470	g	1	42.0	1	0.4441795	4
917.854	0.5	BAD keypress	1	917854	n/a	n/a	n/a	n/a	n/a	n/a
918.104	0.0	keypress	3	918104	n/a	n/a	n/a	n/a	n/a	n/a
919.603	0.0	nontarget	4	919603	e	0	31.0	n/a	n/a	4
921.737	0.0	nontarget	4	921737	j	0	25.0	n/a	n/a	4
924.137	0.0	nontarget	4	924137	r	0	41.0	n/a	n/a	4
926.37	0.0	target	5	926370	t	1	31.0	1	0.407921	4
926.703	0.5	BAD keypress	1	926703	n/a	n/a	n/a	n/a	n/a	n/a
926.953	0.0	keypress	3	926953	n/a	n/a	n/a	n/a	n/a	n/a
928.22	0.0	target	5	928220	y	1	17.0	1	0.5258924	4
928.653	0.5	BAD keypress	1	928653	n/a	n/a	n/a	n/a	n/a	n/a
928.903	0.0	keypress	3	928903	n/a	n/a	n/a	n/a	n/a	n/a
930.27	0.0	nontarget	4	930270	z	0	23.0	n/a	n/a	4
932.286	0.0	nontarget	4	932286	e	0	18.0	n/a	n/a	4
934.636	0.0	nontarget	4	934636	ß	0	38.0	n/a	n/a	4
936.936	0.0	target	5	936936	a	1	35.0	1	0.465055	4
937.269	0.5	BAD keypress	1	937269	n/a	n/a	n/a	n/a	n/a	n/a
937.519	0.0	keypress	3	937519	n/a	n/a	n/a	n/a	n/a	n/a
939.136	0.0	target	5	939136	d	1	38.0	1	0.4249495	4
939.486	0.5	BAD keypress	1	939486	n/a	n/a	n/a	n/a	n/a	n/a
939.736	0.0	keypress	3	939736	n/a	n/a	n/a	n/a	n/a	n/a
941.303	0.0	nontarget	4	941303	b	0	35.0	n/a	n/a	4
943.502	0.0	nontarget	4	943502	ä	0	29.0	n/a	n/a	4
945.786	0.0	nontarget	4	945786	n	0	34.0	n/a	n/a	4
947.786	0.0	nontarget	4	947786	u	0	17.0	n/a	n/a	4
949.885	0.0	nontarget	4	949885	k	0	23.0	n/a	n/a	4
952.119	0.0	nontarget	4	952119	j	0	31.0	n/a	n/a	4
954.435	0.0	target	5	954435	b	1	36.0	1	0.436573	4
954.785	0.5	BAD keypress	1	954785	n/a	n/a	n/a	n/a	n/a	n/a
955.035	0.0	keypress	3	955035	n/a	n/a	n/a	n/a	n/a	n/a
956.419	0.0	nontarget	4	956419	w	0	24.0	n/a	n/a	4
958.752	0.0	nontarget	4	958752	s	0	37.0	n/a	n/a	4
961.168	0.0	nontarget	4	961168	p	0	42.0	n/a	n/a	4
963.352	0.0	nontarget	4	963352	n	0	28.0	n/a	n/a	4
965.835	0.0	nontarget	4	965835	v	0	46.0	n/a	n/a	4
968.218	0.0	nontarget	4	968218	m	0	40.0	n/a	n/a	4
970.468	0.0	nontarget	4	970468	p	0	32.0	n/a	n/a	4
972.601	0.0	target	5	972601	g	1	25.0	1	0.4935753	4
973.018	0.5	BAD keypress	1	973018	n/a	n/a	n/a	n/a	n/a	n/a
973.268	0.0	keypress	3	973268	n/a	n/a	n/a	n/a	n/a	n/a
974.768	0.0	nontarget	4	974768	t	0	31.0	n/a	n/a	4
976.851	0.0	nontarget	4	976851	b	0	22.0	n/a	n/a	4
978.934	0.0	nontarget	4	978934	y	0	22.0	n/a	n/a	4
980.034	59.51400000000001	BAD_break	2	980034	n/a	n/a	n/a	n/a	n/a	n/a
1040.048	0.0	nontarget	4	1040048	o	0	24.0	n/a	n/a	5
1042.365	0.0	nontarget	4	1042365	q	0	36.0	n/a	n/a	5
1044.448	0.0	nontarget	4	1044448	e	0	22.0	n/a	n/a	5
1046.398	0.0	target	5	1046398	v	1	14.0	1	0.4997629	5
1046.831	0.5	BAD keypress	1	1046831	n/a	n/a	n/a	n/a	n/a	n/a
1047.081	0.0	keypress	3	1047081	n/a	n/a	n/a	n/a	n/a	n/a
1048.498	0.0	nontarget	4	1048498	p	0	25.0	n/a	n/a	5
1050.931	0.0	nontarget	4	1050931	m	0	43.0	n/a	n/a	5
1053.414	0.0	target	5	1053414	l	1	46.0	1	0.4909816	5
1053.831	0.5	BAD keypress	1	1053831	n/a	n/a	n/a	n/a	n/a	n/a
1054.081	0.0	keypress	3	1054081	n/a	n/a	n/a	n/a	n/a	n/a
1055.781	0.0	nontarget	4	1055781	e	0	43.0	n/a	n/a	5
1058.314	0.0	nontarget	4	1058314	z	0	49.0	n/a	n/a	5
1060.847	0.0	nontarget	4	1060847	g	0	49.0	n/a	n/a	5
1062.997	0.0	nontarget	4	1062997	ö	0	26.0	n/a	n/a	5
1065.53	0.0	nontarget	4	1065530	h	0	49.0	n/a	n/a	5
1067.48	0.0	nontarget	4	1067480	l	0	14.0	n/a	n/a	5
1069.98	0.0	nontarget	4	1069980	r	0	47.0	n/a	n/a	5
1072.43	0.0	target	5	1072430	c	1	44.0	1	0.4818181	5
1072.897	0.5	BAD keypress	1	1072897	n/a	n/a	n/a	n/a	n/a	n/a
1073.147	0.0	keypress	3	1073147	n/a	n/a	n/a	n/a	n/a	n/a
1074.43	0.0	target	5	1074430	t	1	18.0	1	0.4817832	5
1074.813	0.5	BAD keypress	1	1074813	n/a	n/a	n/a	n/a	n/a	n/a
1075.063	0.0	keypress	3	1075063	n/a	n/a	n/a	n/a	n/a	n/a
1076.38	0.0	target	5	1076380	h	1	20.0	1	0.4677544	5
1076.763	0.5	BAD keypress	1	1076763	n/a	n/a	n/a	n/a	n/a	n/a
1077.013	0.0	keypress	3	1077013	n/a	n/a	n/a	n/a	n/a	n/a
1078.48	0.0	nontarget	4	1078480	s	0	29.0	n/a	n/a	5
1080.83	0.0	nontarget	4	1080830	c	0	38.0	n/a	n/a	5
1083.38	0.0	target	5	1083380	v	1	50.0	1	0.4595534	5
1083.763	0.5	BAD keypress	1	1083763	n/a	n/a	n/a	n/a	n/a	n/a
1084.013	0.0	keypress	3	1084013	n/a	n/a	n/a	n/a	n/a	n/a
1085.713	0.0	nontarget	4	1085713	ß	0	43.0	n/a	n/a	5
1087.779	0.0	nontarget	4	1087779	e	0	21.0	n/a	n/a	5
1090.313	0.0	nontarget	4	1090313	z	0	49.0	n/a	n/a	5
1092.579	0.0	target	5	1092579	w	1	33.0	1	0.4433495	5
1092.913	0.5	BAD keypress	1	1092913	n/a	n/a	n/a	n/a	n/a	n/a
1093.163	0.0	keypress	3	1093163	n/a	n/a	n/a	n/a	n/a	n/a
1094.629	0.0	nontarget	4	1094629	l	0	29.0	n/a	n/a	5
1097.079	0.0	nontarget	4	1097079	b	0	44.0	n/a	n/a	5
1099.346	0.0	nontarget	4	1099346	a	0	33.0	n/a	n/a	5
1101.745	0.0	nontarget	4	1101745	s	0	41.0	n/a	n/a	5
1103.695	0.0	nontarget	4	1103695	h	0	14.0	n/a	n/a	5
1105.895	0.0	nontarget	4	1105895	x	0	29.0	n/a	n/a	5
1108.312	0.0	nontarget	4	1108312	ß	0	42.0	n/a	n/a	5
1110.545	0.0	nontarget	4	1110545	t	0	31.0	n/a	n/a	5
1112.862	0.0	nontarget	4	1112862	c	0	36.0	n/a	n/a	5
1115.145	0.0	nontarget	4	1115145	q	0	34.0	n/a	n/a	5
1117.195	0.0	nontarget	4	1117195	x	0	20.0	n/a	n/a	5
1119.661	0.0	nontarget	4	1119661	j	0	45.0	n/a	n/a	5
1122.028	0.0	nontarget	4	1122028	ö	0	39.0	n/a	n/a	5
1124.128	0.0	nontarget	4	1124128	d	0	23.0	n/a	n/a	5
1126.194	0.0	nontarget	4	1126194	m	0	21.0	n/a	n/a	5
1128.478	0.0	nontarget	4	1128478	h	0	34.0	n/a	n/a	5
1131.028	0.0	nontarget	4	1131028	z	0	50.0	n/a	n/a	5
1133.194	0.0	nontarget	4	1133194	r	0	27.0	n/a	n/a	5
1135.477	0.0	target	5	1135477	x	1	34.0	1	0.438451	5
1135.844	0.5	BAD keypress	1	1135844	n/a	n/a	n/a	n/a	n/a	n/a
1136.094	0.0	keypress	3	1136094	n/a	n/a	n/a	n/a	n/a	n/a
1137.761	0.0	nontarget	4	1137761	b	0	41.0	n/a	n/a	5
1139.91	0.0	nontarget	4	1139910	l	0	26.0	n/a	n/a	5
1142.044	0.0	nontarget	4	1142044	k	0	25.0	n/a	n/a	5
1144.294	0.0	nontarget	4	1144294	j	0	32.0	n/a	n/a	5
1146.46	0.0	target	5	1146460	e	1	27.0	1	0.4786497	5
1146.844	0.5	BAD keypress	1	1146844	n/a	n/a	n/a	n/a	n/a	n/a
1147.094	0.0	keypress	3	1147094	n/a	n/a	n/a	n/a	n/a	n/a
1148.843	0.0	target	5	1148843	r	1	46.0	1	0.4793219	5
1149.227	0.5	BAD keypress	1	1149227	n/a	n/a	n/a	n/a	n/a	n/a
1149.477	0.0	keypress	3	1149477	n/a	n/a	n/a	n/a	n/a	n/a
1151.193	0.0	target	5	1151193	z	1	43.0	1	0.465223	5
1151.593	0.5	BAD keypress	1	1151593	n/a	n/a	n/a	n/a	n/a	n/a
1151.843	0.0	keypress	3	1151843	n/a	n/a	n/a	n/a	n/a	n/a
1153.527	0.0	nontarget	4	1153527	o	0	42.0	n/a	n/a	5
1156.043	0.0	nontarget	4	1156043	u	0	48.0	n/a	n/a	5
1158.36	0.0	nontarget	4	1158360	h	0	36.0	n/a	n/a	5
1160.71	0.0	nontarget	4	1160710	e	0	38.0	n/a	n/a	5
1162.759	0.0	nontarget	4	1162759	b	0	20.0	n/a	n/a	5
1165.009	0.0	target	5	1165009	x	1	32.0	1	0.4723114	5
1165.359	0.5	BAD keypress	1	1165359	n/a	n/a	n/a	n/a	n/a	n/a
1165.609	0.0	keypress	3	1165609	n/a	n/a	n/a	n/a	n/a	n/a
1167.393	0.0	nontarget	4	1167393	j	0	48.0	n/a	n/a	5
1169.426	0.0	nontarget	4	1169426	ä	0	19.0	n/a	n/a	5
1171.426	0.0	nontarget	4	1171426	l	0	17.0	n/a	n/a	5
1173.459	0.0	target	5	1173459	d	1	19.0	1	0.4540652	5
1173.809	0.5	BAD keypress	1	1173809	n/a	n/a	n/a	n/a	n/a	n/a
1174.059	0.0	keypress	3	1174059	n/a	n/a	n/a	n/a	n/a	n/a
1175.842	0.0	nontarget	4	1175842	m	0	48.0	n/a	n/a	5
1178.359	0.0	target	5	1178359	e	1	48.0	1	0.4658053	5
1178.742	0.5	BAD keypress	1	1178742	n/a	n/a	n/a	n/a	n/a	n/a
1178.992	0.0	keypress	3	1178992	n/a	n/a	n/a	n/a	n/a	n/a
1180.492	0.0	nontarget	4	1180492	h	0	31.0	n/a	n/a	5
1182.709	0.0	nontarget	4	1182709	c	0	30.0	n/a	n/a	5
1185.192	0.0	nontarget	4	1185192	ü	0	46.0	n/a	n/a	5
1187.375	0.0	nontarget	4	1187375	y	0	28.0	n/a	n/a	5
1188.475	85.7800000000002	BAD_break	2	1188475	n/a	n/a	n/a	n/a	n/a	n/a
1274.755	0.0	nontarget	4	1274755	t	0	35.0	n/a	n/a	6
1277.288	0.0	nontarget	4	1277288	j	0	49.0	n/a	n/a	6
1279.721	0.0	nontarget	4	1279721	r	0	43.0	n/a	n/a	6
1281.671	0.0	nontarget	4	1281671	m	0	14.0	n/a	n/a	6
1284.171	0.0	nontarget	4	1284171	u	0	47.0	n/a	n/a	6
1286.304	0.0	nontarget	4	1286304	w	0	25.0	n/a	n/a	6
1288.404	0.0	nontarget	4	1288404	d	0	23.0	n/a	n/a	6
1290.637	0.0	nontarget	4	1290637	b	0	31.0	n/a	n/a	6
1293.137	0.0	nontarget	4	1293137	n	0	47.0	n/a	n/a	6
1295.287	0.0	nontarget	4	1295287	v	0	26.0	n/a	n/a	6
1297.554	0.0	target	5	1297554	k	1	33.0	1	0.4950759	6
1297.987	0.5	BAD keypress	1	1297987	n/a	n/a	n/a	n/a	n/a	n/a
1298.237	0.0	keypress	3	1298237	n/a	n/a	n/a	n/a	n/a	n/a
1299.603	0.0	nontarget	4	1299603	q	0	22.0	n/a	n/a	6
1301.687	0.0	target	5	1301687	d	1	22.0	1	0.4256426	6
1302.053	0.5	BAD keypress	1	1302053	n/a	n/a	n/a	n/a	n/a	n/a
1302.303	0.0	keypress	3	1302303	n/a	n/a	n/a	n/a	n/a	n/a
1303.637	0.0	nontarget	4	1303637	t	0	20.0	n/a	n/a	6
1305.953	0.0	nontarget	4	1305953	g	0	36.0	n/a	n/a	6
1308.003	0.0	nontarget	4	1308003	i	0	20.0	n/a	n/a	6
1310.303	0.0	nontarget	4	1310303	s	0	35.0	n/a	n/a	6
1312.32	0.0	nontarget	4	1312320	r	0	18.0	n/a	n/a	6
1314.569	0.0	nontarget	4	1314569	e	0	32.0	n/a	n/a	6
1316.686	0.0	nontarget	4	1316686	c	0	24.0	n/a	n/a	6
1318.669	0.0	target	5	1318669	p	1	16.0	1	0.4498901	6
1319.019	0.5	BAD keypress	1	1319019	n/a	n/a	n/a	n/a	n/a	n/a
1319.269	0.0	keypress	3	1319269	n/a	n/a	n/a	n/a	n/a	n/a
1320.836	0.0	target	5	1320836	h	1	34.0	1	0.4591686	6
1321.219	0.5	BAD keypress	1	1321219	n/a	n/a	n/a	n/a	n/a	n/a
1321.469	0.0	keypress	3	1321469	n/a	n/a	n/a	n/a	n/a	n/a
1322.936	0.0	nontarget	4	1322936	a	0	29.0	n/a	n/a	6
1324.902	0.0	nontarget	4	1324902	x	0	15.0	n/a	n/a	6
1326.969	0.0	nontarget	4	1326969	p	0	21.0	n/a	n/a	6
1329.186	0.0	nontarget	4	1329186	f	0	30.0	n/a	n/a	6
1331.685	0.0	target	5	1331685	v	1	47.0	1	0.4889212	6
1332.086	0.5	BAD keypress	1	1332086	n/a	n/a	n/a	n/a	n/a	n/a
1332.336	0.0	keypress	3	1332336	n/a	n/a	n/a	n/a	n/a	n/a
1334.069	0.0	nontarget	4	1334069	ö	0	45.0	n/a	n/a	6
1336.085	0.0	nontarget	4	1336085	ä	0	18.0	n/a	n/a	6
1338.535	0.0	nontarget	4	1338535	u	0	44.0	n/a	n/a	6
1340.985	0.0	nontarget	4	1340985	m	0	44.0	n/a	n/a	6
1343.035	0.0	nontarget	4	1343035	l	0	20.0	n/a	n/a	6
1345.485	0.0	nontarget	4	1345485	a	0	44.0	n/a	n/a	6
1347.585	0.0	nontarget	4	1347585	ß	0	23.0	n/a	n/a	6
1350.035	0.0	nontarget	4	1350035	x	0	44.0	n/a	n/a	6
1352.218	0.0	target	5	1352218	j	1	28.0	1	0.5630557	6
1352.701	0.5	BAD keypress	1	1352701	n/a	n/a	n/a	n/a	n/a	n/a
1352.951	0.0	keypress	3	1352951	n/a	n/a	n/a	n/a	n/a	n/a
1354.484	0.0	nontarget	4	1354484	ö	0	33.0	n/a	n/a	6
1356.968	0.0	nontarget	4	1356968	n	0	46.0	n/a	n/a	6
1358.984	0.0	nontarget	4	1358984	a	0	18.0	n/a	n/a	6
1361.434	0.0	nontarget	4	1361434	s	0	44.0	n/a	n/a	6
1363.584	0.0	nontarget	4	1363584	k	0	26.0	n/a	n/a	6
1366.117	0.0	nontarget	4	1366117	h	0	49.0	n/a	n/a	6
1368.25	0.0	nontarget	4	1368250	o	0	25.0	n/a	n/a	6
1370.384	0.0	target	5	1370384	e	1	25.0	1	0.4439865	6
1370.75	0.5	BAD keypress	1	1370750	n/a	n/a	n/a	n/a	n/a	n/a
1371.0	0.0	keypress	3	1371000	n/a	n/a	n/a	n/a	n/a	n/a
1372.35	0.0	nontarget	4	1372350	ä	0	22.0	n/a	n/a	6
1374.884	0.0	nontarget	4	1374884	j	0	49.0	n/a	n/a	6
1377.1	0.0	nontarget	4	1377100	d	0	30.0	n/a	n/a	6
1379.15	0.0	nontarget	4	1379150	k	0	20.0	n/a	n/a	6
1381.1	0.0	nontarget	4	1381100	b	0	14.0	n/a	n/a	6
1383.066	0.0	nontarget	4	1383066	h	0	15.0	n/a	n/a	6
1385.266	0.0	nontarget	4	1385266	f	0	29.0	n/a	n/a	6
1387.216	0.0	nontarget	4	1387216	l	0	14.0	n/a	n/a	6
1389.316	0.0	target	5	1389316	f	1	23.0	1	0.4862136	6
1389.7	0.5	BAD keypress	1	1389700	n/a	n/a	n/a	n/a	n/a	n/a
1389.95	0.0	keypress	3	1389950	n/a	n/a	n/a	n/a	n/a	n/a
1391.283	0.0	nontarget	4	1391283	j	0	21.0	n/a	n/a	6
1393.349	0.0	nontarget	4	1393349	ü	0	21.0	n/a	n/a	6
1395.616	0.0	target	5	1395616	b	1	33.0	1	0.4419831	6
1395.999	0.5	BAD keypress	1	1395999	n/a	n/a	n/a	n/a	n/a	n/a
1396.249	0.0	keypress	3	1396249	n/a	n/a	n/a	n/a	n/a	n/a
1397.949	0.0	target	5	1397949	u	1	43.0	0	n/a	6
1400.766	0.0	nontarget	4	1400766	p	0	35.0	n/a	n/a	6
1402.849	0.0	nontarget	4	1402849	e	0	22.0	n/a	n/a	6
1405.066	0.0	nontarget	4	1405066	z	0	30.0	n/a	n/a	6
1407.332	0.0	nontarget	4	1407332	r	0	33.0	n/a	n/a	6
1409.432	0.0	nontarget	4	1409432	o	0	23.0	n/a	n/a	6
1411.415	0.0	nontarget	4	1411415	h	0	16.0	n/a	n/a	6
1413.548	0.0	nontarget	4	1413548	d	0	25.0	n/a	n/a	6
1415.732	0.0	target	5	1415732	c	1	28.0	1	0.4689131	6
1416.098	0.5	BAD keypress	1	1416098	n/a	n/a	n/a	n/a	n/a	n/a
1416.348	0.0	keypress	3	1416348	n/a	n/a	n/a	n/a	n/a	n/a
1417.732	0.0	nontarget	4	1417732	ö	0	24.0	n/a	n/a	6
1418.832	51.33100000000013	BAD_break	2	1418832	n/a	n/a	n/a	n/a	n/a	n/a
1470.663	0.0	nontarget	4	1470663	f	0	47.0	n/a	n/a	7
1472.796	0.0	nontarget	4	1472796	z	0	25.0	n/a	n/a	7
1475.329	0.0	nontarget	4	1475329	k	0	49.0	n/a	n/a	7
1477.579	0.0	nontarget	4	1477579	y	0	32.0	n/a	n/a	7
1479.962	0.0	nontarget	4	1479962	i	0	40.0	n/a	n/a	7
1482.079	0.0	nontarget	4	1482079	t	0	24.0	n/a	n/a	7
1484.045	0.0	nontarget	4	1484045	c	0	15.0	n/a	n/a	7
1486.579	0.0	nontarget	4	1486579	ß	0	49.0	n/a	n/a	7
1489.095	0.0	nontarget	4	1489095	o	0	48.0	n/a	n/a	7
1491.362	0.0	target	5	1491362	a	1	33.0	1	0.4337253	7
1491.745	0.5	BAD keypress	1	1491745	n/a	n/a	n/a	n/a	n/a	n/a
1491.995	0.0	keypress	3	1491995	n/a	n/a	n/a	n/a	n/a	n/a
1493.295	0.0	target	5	1493295	l	1	19.0	1	0.4683468	7
1493.662	0.5	BAD keypress	1	1493662	n/a	n/a	n/a	n/a	n/a	n/a
1493.912	0.0	keypress	3	1493912	n/a	n/a	n/a	n/a	n/a	n/a
1495.212	0.0	nontarget	4	1495212	k	0	18.0	n/a	n/a	7
1497.362	0.0	nontarget	4	1497362	d	0	26.0	n/a	n/a	7
1499.778	0.0	nontarget	4	1499778	z	0	42.0	n/a	n/a	7
1501.895	0.0	nontarget	4	1501895	i	0	24.0	n/a	n/a	7
1504.245	0.0	nontarget	4	1504245	s	0	38.0	n/a	n/a	7
1506.461	0.0	target	5	1506461	x	1	30.0	1	0.4213171	7
1506.828	0.5	BAD keypress	1	1506828	n/a	n/a	n/a	n/a	n/a	n/a
1507.078	0.0	keypress	3	1507078	n/a	n/a	n/a	n/a	n/a	n/a
1508.778	0.0	nontarget	4	1508778	g	0	43.0	n/a	n/a	7
1511.311	0.0	target	5	1511311	c	1	49.0	1	0.5312168	7
1511.794	0.5	BAD keypress	1	1511794	n/a	n/a	n/a	n/a	n/a	n/a
1512.044	0.0	keypress	3	1512044	n/a	n/a	n/a	n/a	n/a	n/a
1513.594	0.0	nontarget	4	1513594	z	0	34.0	n/a	n/a	7
1515.544	0.0	nontarget	4	1515544	h	0	14.0	n/a	n/a	7
1517.961	0.0	nontarget	4	1517961	s	0	42.0	n/a	n/a	7
1520.311	0.0	nontarget	4	1520311	ß	0	38.0	n/a	n/a	7
1522.41	0.0	nontarget	4	1522410	x	0	23.0	n/a	n/a	7
1524.627	0.0	nontarget	4	1524627	y	0	30.0	n/a	n/a	7
1526.777	0.0	nontarget	4	1526777	o	0	26.0	n/a	n/a	7
1529.293	0.0	nontarget	4	1529293	r	0	48.0	n/a	n/a	7
1531.36	0.0	nontarget	4	1531360	l	0	21.0	n/a	n/a	7
1533.81	0.0	nontarget	4	1533810	y	0	44.0	n/a	n/a	7
1536.326	0.0	nontarget	4	1536326	v	0	48.0	n/a	n/a	7
1538.743	0.0	target	5	1538743	g	1	42.0	1	0.4412458	7
1539.11	0.5	BAD keypress	1	1539110	n/a	n/a	n/a	n/a	n/a	n/a
1539.36	0.0	keypress	3	1539360	n/a	n/a	n/a	n/a	n/a	n/a
1540.826	0.0	nontarget	4	1540826	ß	0	29.0	n/a	n/a	7
1543.076	0.0	nontarget	4	1543076	r	0	32.0	n/a	n/a	7
1545.293	0.0	nontarget	4	1545293	f	0	30.0	n/a	n/a	7
1547.509	0.0	nontarget	4	1547509	w	0	30.0	n/a	n/a	7
1549.709	0.0	nontarget	4	1549709	x	0	29.0	n/a	n/a	7
1551.676	0.0	nontarget	4	1551676	ä	0	15.0	n/a	n/a	7
1553.992	0.0	nontarget	4	1553992	n	0	36.0	n/a	n/a	7
1556.276	0.0	nontarget	4	1556276	o	0	34.0	n/a	n/a	7
1558.226	0.0	nontarget	4	1558226	a	0	14.0	n/a	n/a	7
1560.759	0.0	nontarget	4	1560759	y	0	49.0	n/a	n/a	7
1563.042	0.0	nontarget	4	1563042	m	0	34.0	n/a	n/a	7
1565.109	0.0	nontarget	4	1565109	q	0	21.0	n/a	n/a	7
1567.342	0.0	target	5	1567342	g	1	31.0	1	0.48052	7
1567.742	0.5	BAD keypress	1	1567742	n/a	n/a	n/a	n/a	n/a	n/a
1567.992	0.0	keypress	3	1567992	n/a	n/a	n/a	n/a	n/a	n/a
1569.425	0.0	nontarget	4	1569425	r	0	27.0	n/a	n/a	7
1571.825	0.0	target	5	1571825	s	1	41.0	1	0.4290696	7
1572.175	0.5	BAD keypress	1	1572175	n/a	n/a	n/a	n/a	n/a	n/a
1572.425	0.0	keypress	3	1572425	n/a	n/a	n/a	n/a	n/a	n/a
1573.991	0.0	target	5	1573991	r	1	35.0	1	0.4863926	7
1574.392	0.5	BAD keypress	1	1574392	n/a	n/a	n/a	n/a	n/a	n/a
1574.642	0.0	keypress	3	1574642	n/a	n/a	n/a	n/a	n/a	n/a
1575.908	0.0	target	5	1575908	c	1	17.0	1	0.4896779	7
1576.325	0.5	BAD keypress	1	1576325	n/a	n/a	n/a	n/a	n/a	n/a
1576.575	0.0	keypress	3	1576575	n/a	n/a	n/a	n/a	n/a	n/a
1578.158	0.0	nontarget	4	1578158	q	0	36.0	n/a	n/a	7
1580.675	0.0	target	5	1580675	t	1	48.0	1	0.4908606	7
1581.091	0.5	BAD keypress	1	1581091	n/a	n/a	n/a	n/a	n/a	n/a
1581.341	0.0	keypress	3	1581341	n/a	n/a	n/a	n/a	n/a	n/a
1582.991	0.0	nontarget	4	1582991	r	0	40.0	n/a	n/a	7
1585.324	0.0	target	5	1585324	s	1	37.0	1	0.4487587	7
1585.674	0.5	BAD keypress	1	1585674	n/a	n/a	n/a	n/a	n/a	n/a
1585.924	0.0	keypress	3	1585924	n/a	n/a	n/a	n/a	n/a	n/a
1587.291	0.0	nontarget	4	1587291	b	0	22.0	n/a	n/a	7
1589.841	0.0	target	5	1589841	m	1	50.0	1	0.4279215	7
1590.208	0.5	BAD keypress	1	1590208	n/a	n/a	n/a	n/a	n/a	n/a
1590.458	0.0	keypress	3	1590458	n/a	n/a	n/a	n/a	n/a	n/a
1591.857	0.0	nontarget	4	1591857	d	0	25.0	n/a	n/a	7
1594.274	0.0	nontarget	4	1594274	a	0	42.0	n/a	n/a	7
1596.674	0.0	nontarget	4	1596674	q	0	41.0	n/a	n/a	7
1599.14	0.0	nontarget	4	1599140	v	0	45.0	n/a	n/a	7
1601.474	0.0	nontarget	4	1601474	u	0	37.0	n/a	n/a	7
1603.474	0.0	nontarget	4	1603474	g	0	17.0	n/a	n/a	7
1605.857	0.0	nontarget	4	1605857	z	0	40.0	n/a	n/a	7
1607.99	0.0	target	5	1607990	m	1	25.0	1	0.4854984	7
1608.373	0.5	BAD keypress	1	1608373	n/a	n/a	n/a	n/a	n/a	n/a
1608.623	0.0	keypress	3	1608623	n/a	n/a	n/a	n/a	n/a	n/a
1610.323	0.0	nontarget	4	1610323	l	0	43.0	n/a	n/a	7
1612.64	0.0	nontarget	4	1612640	d	0	36.0	n/a	n/a	7
1615.04	0.0	nontarget	4	1615040	z	0	41.0	n/a	n/a	7
1617.49	0.0	nontarget	4	1617490	s	0	44.0	n/a	n/a	7
1618.59	66.69700000000012	BAD_break	2	1618590	n/a	n/a	n/a	n/a	n/a	n/a
1685.787	0.0	nontarget	4	1685787	n	0	43.0	n/a	n/a	8
1688.203	0.0	nontarget	4	1688203	p	0	42.0	n/a	n/a	8
1690.386	0.0	nontarget	4	1690386	w	0	28.0	n/a	n/a	8
1692.836	0.0	nontarget	4	1692836	y	0	44.0	n/a	n/a	8
1695.07	0.0	nontarget	4	1695070	c	0	31.0	n/a	n/a	8
1697.236	0.0	nontarget	4	1697236	b	0	27.0	n/a	n/a	8
1699.419	0.0	target	5	1699419	k	1	28.0	1	0.4899574	8
1699.836	0.5	BAD keypress	1	1699836	n/a	n/a	n/a	n/a	n/a	n/a
1700.086	0.0	keypress	3	1700086	n/a	n/a	n/a	n/a	n/a	n/a
1701.569	0.0	nontarget	4	1701569	g	0	29.0	n/a	n/a	8
1703.886	0.0	nontarget	4	1703886	ß	0	36.0	n/a	n/a	8
1705.869	0.0	target	5	1705869	t	1	16.0	1	0.5358889	8
1706.336	0.5	BAD keypress	1	1706336	n/a	n/a	n/a	n/a	n/a	n/a
1706.586	0.0	keypress	3	1706586	n/a	n/a	n/a	n/a	n/a	n/a
1708.086	0.0	nontarget	4	1708086	c	0	31.0	n/a	n/a	8
1710.502	0.0	target	5	1710502	b	1	42.0	1	0.4783825	8
1710.902	0.5	BAD keypress	1	1710902	n/a	n/a	n/a	n/a	n/a	n/a
1711.152	0.0	keypress	3	1711152	n/a	n/a	n/a	n/a	n/a	n/a
1712.535	0.0	nontarget	4	1712535	e	0	24.0	n/a	n/a	8
1715.002	0.0	nontarget	4	1715002	ß	0	45.0	n/a	n/a	8
1717.352	0.0	nontarget	4	1717352	d	0	38.0	n/a	n/a	8
1719.785	0.0	target	5	1719785	e	1	43.0	1	0.4428288	8
1720.152	0.5	BAD keypress	1	1720152	n/a	n/a	n/a	n/a	n/a	n/a
1720.402	0.0	keypress	3	1720402	n/a	n/a	n/a	n/a	n/a	n/a
1721.652	0.0	nontarget	4	1721652	i	0	16.0	n/a	n/a	8
1723.668	0.0	nontarget	4	1723668	x	0	18.0	n/a	n/a	8
1725.885	0.0	target	5	1725885	s	1	30.0	1	0.4867014	8
1726.285	0.5	BAD keypress	1	1726285	n/a	n/a	n/a	n/a	n/a	n/a
1726.535	0.0	keypress	3	1726535	n/a	n/a	n/a	n/a	n/a	n/a
1728.301	0.0	target	5	1728301	z	1	47.0	1	0.4698212	8
1728.668	0.5	BAD keypress	1	1728668	n/a	n/a	n/a	n/a	n/a	n/a
1728.918	0.0	keypress	3	1728918	n/a	n/a	n/a	n/a	n/a	n/a
1730.268	0.0	nontarget	4	1730268	ü	0	22.0	n/a	n/a	8
1732.768	0.0	nontarget	4	1732768	i	0	47.0	n/a	n/a	8
1735.251	0.0	target	5	1735251	i	1	46.0	1	0.431757	8
1735.601	0.5	BAD keypress	1	1735601	n/a	n/a	n/a	n/a	n/a	n/a
1735.851	0.0	keypress	3	1735851	n/a	n/a	n/a	n/a	n/a	n/a
1737.651	0.0	nontarget	4	1737651	z	0	49.0	n/a	n/a	8
1740.151	0.0	nontarget	4	1740151	x	0	47.0	n/a	n/a	8
1742.218	0.0	nontarget	4	1742218	a	0	21.0	n/a	n/a	8
1744.251	0.0	nontarget	4	1744251	ß	0	19.0	n/a	n/a	8
1746.684	0.0	nontarget	4	1746684	k	0	43.0	n/a	n/a	8
1749.001	0.0	nontarget	4	1749001	s	0	36.0	n/a	n/a	8
1751.4	0.0	nontarget	4	1751400	t	0	41.0	n/a	n/a	8
1753.65	0.0	nontarget	4	1753650	e	0	32.0	n/a	n/a	8
1755.9	0.0	nontarget	4	1755900	y	0	32.0	n/a	n/a	8
1757.967	0.0	nontarget	4	1757967	z	0	21.0	n/a	n/a	8
1760.25	0.0	nontarget	4	1760250	m	0	34.0	n/a	n/a	8
1762.483	0.0	nontarget	4	1762483	c	0	31.0	n/a	n/a	8
1764.95	0.0	nontarget	4	1764950	v	0	45.0	n/a	n/a	8
1767.166	0.0	nontarget	4	1767166	ß	0	30.0	n/a	n/a	8
1769.5	0.0	nontarget	4	1769500	s	0	37.0	n/a	n/a	8
1771.75	0.0	nontarget	4	1771750	x	0	32.0	n/a	n/a	8
1774.233	0.0	target	5	1774233	w	1	46.0	1	0.4555339	8
1774.6	0.5	BAD keypress	1	1774600	n/a	n/a	n/a	n/a	n/a	n/a
1774.85	0.0	keypress	3	1774850	n/a	n/a	n/a	n/a	n/a	n/a
1776.399	0.0	nontarget	4	1776399	r	0	34.0	n/a	n/a	8
1778.516	0.0	nontarget	4	1778516	a	0	24.0	n/a	n/a	8
1780.499	0.0	nontarget	4	1780499	t	0	16.0	n/a	n/a	8
1783.049	0.0	nontarget	4	1783049	ö	0	50.0	n/a	n/a	8
1785.299	0.0	nontarget	4	1785299	ü	0	32.0	n/a	n/a	8
1787.366	0.0	nontarget	4	1787366	l	0	21.0	n/a	n/a	8
1789.832	0.0	nontarget	4	1789832	j	0	45.0	n/a	n/a	8
1791.982	0.0	nontarget	4	1791982	ö	0	26.0	n/a	n/a	8
1794.249	0.0	nontarget	4	1794249	h	0	33.0	n/a	n/a	8
1796.215	0.0	nontarget	4	1796215	o	0	15.0	n/a	n/a	8
1798.432	0.0	nontarget	4	1798432	q	0	30.0	n/a	n/a	8
1800.732	0.0	nontarget	4	1800732	d	0	35.0	n/a	n/a	8
1803.248	0.0	nontarget	4	1803248	l	0	48.0	n/a	n/a	8
1805.798	0.0	nontarget	4	1805798	ß	0	50.0	n/a	n/a	8
1808.148	0.0	nontarget	4	1808148	s	0	38.0	n/a	n/a	8
1810.181	0.0	nontarget	4	1810181	w	0	19.0	n/a	n/a	8
1812.481	0.0	target	5	1812481	k	1	35.0	1	0.5084693	8
1812.915	0.5	BAD keypress	1	1812915	n/a	n/a	n/a	n/a	n/a	n/a
1813.165	0.0	keypress	3	1813165	n/a	n/a	n/a	n/a	n/a	n/a
1814.764	0.0	target	5	1814764	y	1	37.0	1	0.4491148	8
1815.148	0.5	BAD keypress	1	1815148	n/a	n/a	n/a	n/a	n/a	n/a
1815.398	0.0	keypress	3	1815398	n/a	n/a	n/a	n/a	n/a	n/a
1817.048	0.0	nontarget	4	1817048	y	0	40.0	n/a	n/a	8
1819.197	0.0	nontarget	4	1819197	a	0	26.0	n/a	n/a	8
1821.381	0.0	nontarget	4	1821381	i	0	28.0	n/a	n/a	8
1823.547	0.0	target	5	1823547	r	1	27.0	1	0.5136572	8
1823.964	0.5	BAD keypress	1	1823964	n/a	n/a	n/a	n/a	n/a	n/a
1824.214	0.0	keypress	3	1824214	n/a	n/a	n/a	n/a	n/a	n/a
1825.731	0.0	nontarget	4	1825731	z	0	32.0	n/a	n/a	8
1827.764	0.0	nontarget	4	1827764	c	0	19.0	n/a	n/a	8
1829.93	0.0	target	5	1829930	ä	1	27.0	1	0.4181386	8
1830.247	0.5	BAD keypress	1	1830247	n/a	n/a	n/a	n/a	n/a	n/a
1830.497	0.0	keypress	3	1830497	n/a	n/a	n/a	n/a	n/a	n/a
1831.747	0.0	nontarget	4	1831747	t	0	16.0	n/a	n/a	8
1832.847	52.51400000000013	BAD_break	2	1832847	n/a	n/a	n/a	n/a	n/a	n/a
1885.861	0.0	target	5	1885861	ü	1	26.0	1	0.4194169	9
1886.211	0.5	BAD keypress	1	1886211	n/a	n/a	n/a	n/a	n/a	n/a
1886.461	0.0	keypress	3	1886461	n/a	n/a	n/a	n/a	n/a	n/a
1887.828	0.0	nontarget	4	1887828	ö	0	22.0	n/a	n/a	9
1890.061	0.0	nontarget	4	1890061	ä	0	31.0	n/a	n/a	9
1892.594	0.0	target	5	1892594	m	1	49.0	1	0.3898991	9
1892.911	0.5	BAD keypress	1	1892911	n/a	n/a	n/a	n/a	n/a	n/a
1893.161	0.0	keypress	3	1893161	n/a	n/a	n/a	n/a	n/a	n/a
1894.811	0.0	nontarget	4	1894811	u	0	40.0	n/a	n/a	9
1896.994	0.0	nontarget	4	1896994	m	0	28.0	n/a	n/a	9
1898.977	0.0	nontarget	4	1898977	h	0	16.0	n/a	n/a	9
1901.077	0.0	nontarget	4	1901077	ä	0	23.0	n/a	n/a	9
1903.36	0.0	nontarget	4	1903360	n	0	34.0	n/a	n/a	9
1905.544	0.0	target	5	1905544	b	1	28.0	1	0.4636377	9
1905.927	0.5	BAD keypress	1	1905927	n/a	n/a	n/a	n/a	n/a	n/a
1906.177	0.0	keypress	3	1906177	n/a	n/a	n/a	n/a	n/a	n/a
1907.527	0.0	nontarget	4	1907527	x	0	22.0	n/a	n/a	9
1909.827	0.0	nontarget	4	1909827	ä	0	35.0	n/a	n/a	9
1912.277	0.0	nontarget	4	1912277	g	0	44.0	n/a	n/a	9
1914.26	0.0	nontarget	4	1914260	z	0	16.0	n/a	n/a	9
1916.66	0.0	nontarget	4	1916660	s	0	41.0	n/a	n/a	9
1918.793	0.0	nontarget	4	1918793	h	0	25.0	n/a	n/a	9
1921.326	0.0	nontarget	4	1921326	a	0	49.0	n/a	n/a	9
1923.443	0.0	nontarget	4	1923443	q	0	24.0	n/a	n/a	9
1925.51	0.0	nontarget	4	1925510	g	0	21.0	n/a	n/a	9
1927.693	0.0	nontarget	4	1927693	c	0	28.0	n/a	n/a	9
1930.243	0.0	target	5	1930243	z	1	50.0	1	0.4349732	9
1930.559	0.5	BAD keypress	1	1930559	n/a	n/a	n/a	n/a	n/a	n/a
1930.809	0.0	keypress	3	1930809	n/a	n/a	n/a	n/a	n/a	n/a
1932.543	0.0	nontarget	4	1932543	q	0	45.0	n/a	n/a	9
1934.959	0.0	nontarget	4	1934959	m	0	42.0	n/a	n/a	9
1937.109	0.0	nontarget	4	1937109	w	0	26.0	n/a	n/a	9
1939.326	0.0	nontarget	4	1939326	ü	0	30.0	n/a	n/a	9
1941.492	0.0	nontarget	4	1941492	h	0	27.0	n/a	n/a	9
1943.892	0.0	nontarget	4	1943892	p	0	41.0	n/a	n/a	9
1945.909	0.0	target	5	1945909	h	1	18.0	1	0.4319426	9
1946.259	0.5	BAD keypress	1	1946259	n/a	n/a	n/a	n/a	n/a	n/a
1946.509	0.0	keypress	3	1946509	n/a	n/a	n/a	n/a	n/a	n/a
1947.892	0.0	nontarget	4	1947892	s	0	24.0	n/a	n/a	9
1950.108	0.0	nontarget	4	1950108	y	0	30.0	n/a	n/a	9
1952.458	0.0	nontarget	4	1952458	g	0	38.0	n/a	n/a	9
1954.492	0.0	nontarget	4	1954492	u	0	19.0	n/a	n/a	9
1956.591	0.0	nontarget	4	1956591	ü	0	23.0	n/a	n/a	9
1959.091	0.0	nontarget	4	1959091	n	0	47.0	n/a	n/a	9
1961.175	0.0	nontarget	4	1961175	m	0	22.0	n/a	n/a	9
1963.675	0.0	target	5	1963675	z	1	47.0	1	0.4888492	9
1964.041	0.5	BAD keypress	1	1964041	n/a	n/a	n/a	n/a	n/a	n/a
1964.291	0.0	keypress	3	1964291	n/a	n/a	n/a	n/a	n/a	n/a
1965.541	0.0	nontarget	4	1965541	ä	0	16.0	n/a	n/a	9
1967.624	0.0	target	5	1967624	j	1	22.0	1	0.474793	9
1967.991	0.5	BAD keypress	1	1967991	n/a	n/a	n/a	n/a	n/a	n/a
1968.241	0.0	keypress	3	1968241	n/a	n/a	n/a	n/a	n/a	n/a
1969.791	0.0	nontarget	4	1969791	t	0	33.0	n/a	n/a	9
1972.191	0.0	target	5	1972191	f	1	41.0	1	0.4678622	9
1972.558	0.5	BAD keypress	1	1972558	n/a	n/a	n/a	n/a	n/a	n/a
1972.808	0.0	keypress	3	1972808	n/a	n/a	n/a	n/a	n/a	n/a
1974.174	0.0	target	5	1974174	v	1	23.0	1	0.4366275	9
1974.474	0.5	BAD keypress	1	1974474	n/a	n/a	n/a	n/a	n/a	n/a
1974.724	0.0	keypress	3	1974724	n/a	n/a	n/a	n/a	n/a	n/a
1976.091	0.0	nontarget	4	1976091	e	0	23.0	n/a	n/a	9
1978.407	0.0	nontarget	4	1978407	k	0	36.0	n/a	n/a	9
1980.357	0.0	nontarget	4	1980357	b	0	14.0	n/a	n/a	9
1982.407	0.0	nontarget	4	1982407	u	0	20.0	n/a	n/a	9
1984.59	0.0	nontarget	4	1984590	j	0	28.0	n/a	n/a	9
1986.807	0.0	nontarget	4	1986807	w	0	30.0	n/a	n/a	9
1988.773	0.0	nontarget	4	1988773	m	0	15.0	n/a	n/a	9
1991.107	0.0	target	5	1991107	r	1	37.0	1	0.4468614	9
1991.457	0.5	BAD keypress	1	1991457	n/a	n/a	n/a	n/a	n/a	n/a
1991.707	0.0	keypress	3	1991707	n/a	n/a	n/a	n/a	n/a	n/a
1992.94	0.0	nontarget	4	1992940	t	0	15.0	n/a	n/a	9
1995.106	0.0	nontarget	4	1995106	ü	0	27.0	n/a	n/a	9
1997.656	0.0	nontarget	4	1997656	ß	0	50.0	n/a	n/a	9
2000.056	0.0	nontarget	4	2000056	ä	0	41.0	n/a	n/a	9
2002.406	0.0	nontarget	4	2002406	i	0	38.0	n/a	n/a	9
2004.439	0.0	nontarget	4	2004439	n	0	19.0	n/a	n/a	9
2006.723	0.0	nontarget	4	2006723	v	0	34.0	n/a	n/a	9
2008.889	0.0	nontarget	4	2008889	o	0	27.0	n/a	n/a	9
2011.272	0.0	nontarget	4	2011272	f	0	40.0	n/a	n/a	9
2013.306	0.0	target	5	2013306	a	1	19.0	1	0.4703177	9
2013.672	0.5	BAD keypress	1	2013672	n/a	n/a	n/a	n/a	n/a	n/a
2013.922	0.0	keypress	3	2013922	n/a	n/a	n/a	n/a	n/a	n/a
2015.656	0.0	nontarget	4	2015656	c	0	45.0	n/a	n/a	9
2017.855	0.0	nontarget	4	2017855	u	0	29.0	n/a	n/a	9
2020.355	0.0	nontarget	4	2020355	f	0	47.0	n/a	n/a	9
2022.805	0.0	nontarget	4	2022805	h	0	44.0	n/a	n/a	9
2025.255	0.0	nontarget	4	2025255	d	0	44.0	n/a	n/a	9
2027.422	0.0	nontarget	4	2027422	u	0	27.0	n/a	n/a	9
2029.955	0.0	nontarget	4	2029955	k	0	49.0	n/a	n/a	9
2031.055	58.547000000000025	BAD_break	2	2031055	n/a	n/a	n/a	n/a	n/a	n/a
2090.102	0.0	nontarget	4	2090102	t	0	32.0	n/a	n/a	10
2092.386	0.0	target	5	2092386	e	1	34.0	1	0.4090886	10
2092.752	0.5	BAD keypress	1	2092752	n/a	n/a	n/a	n/a	n/a	n/a
2093.002	0.0	keypress	3	2093002	n/a	n/a	n/a	n/a	n/a	n/a
2094.769	0.0	nontarget	4	2094769	j	0	46.0	n/a	n/a	10
2096.969	0.0	target	5	2096969	a	1	29.0	1	0.4336452	10
2097.335	0.5	BAD keypress	1	2097335	n/a	n/a	n/a	n/a	n/a	n/a
2097.585	0.0	keypress	3	2097585	n/a	n/a	n/a	n/a	n/a	n/a
2099.352	0.0	nontarget	4	2099352	o	0	47.0	n/a	n/a	10
2101.769	0.0	nontarget	4	2101769	x	0	42.0	n/a	n/a	10
2103.918	0.0	nontarget	4	2103918	a	0	26.0	n/a	n/a	10
2106.102	0.0	nontarget	4	2106102	k	0	28.0	n/a	n/a	10
2108.568	0.0	nontarget	4	2108568	i	0	45.0	n/a	n/a	10
2111.018	0.0	nontarget	4	2111018	b	0	44.0	n/a	n/a	10
2113.418	0.0	nontarget	4	2113418	a	0	41.0	n/a	n/a	10
2115.485	0.0	target	5	2115485	s	1	21.0	1	0.4604033	10
2115.835	0.5	BAD keypress	1	2115835	n/a	n/a	n/a	n/a	n/a	n/a
2116.085	0.0	keypress	3	2116085	n/a	n/a	n/a	n/a	n/a	n/a
2117.551	0.0	nontarget	4	2117551	o	0	29.0	n/a	n/a	10
2120.068	0.0	nontarget	4	2120068	p	0	48.0	n/a	n/a	10
2122.284	0.0	target	5	2122284	h	1	30.0	1	0.4123063	10
2122.584	0.5	BAD keypress	1	2122584	n/a	n/a	n/a	n/a	n/a	n/a
2122.834	0.0	keypress	3	2122834	n/a	n/a	n/a	n/a	n/a	n/a
2124.268	0.0	nontarget	4	2124268	y	0	27.0	n/a	n/a	10
2126.351	0.0	nontarget	4	2126351	s	0	22.0	n/a	n/a	10
2128.551	0.0	nontarget	4	2128551	n	0	29.0	n/a	n/a	10
2131.084	0.0	nontarget	4	2131084	e	0	49.0	n/a	n/a	10
2133.167	0.0	nontarget	4	2133167	o	0	22.0	n/a	n/a	10
2135.634	0.0	nontarget	4	2135634	y	0	45.0	n/a	n/a	10
2137.934	0.0	nontarget	4	2137934	v	0	35.0	n/a	n/a	10
2140.067	0.0	nontarget	4	2140067	j	0	25.0	n/a	n/a	10
2142.1	0.0	nontarget	4	2142100	a	0	19.0	n/a	n/a	10
2144.617	0.0	nontarget	4	2144617	q	0	48.0	n/a	n/a	10
2146.6	0.0	nontarget	4	2146600	c	0	16.0	n/a	n/a	10
2149.083	0.0	nontarget	4	2149083	u	0	46.0	n/a	n/a	10
2151.316	0.0	nontarget	4	2151316	n	0	31.0	n/a	n/a	10
2153.8	0.0	target	5	2153800	n	1	46.0	1	0.4468677	10
2154.15	0.5	BAD keypress	1	2154150	n/a	n/a	n/a	n/a	n/a	n/a
2154.4	0.0	keypress	3	2154400	n/a	n/a	n/a	n/a	n/a	n/a
2156.066	0.0	target	5	2156066	k	1	41.0	1	0.4521585	10
2156.416	0.5	BAD keypress	1	2156416	n/a	n/a	n/a	n/a	n/a	n/a
2156.666	0.0	keypress	3	2156666	n/a	n/a	n/a	n/a	n/a	n/a
2157.949	0.0	nontarget	4	2157949	d	0	18.0	n/a	n/a	10
2160.449	0.0	nontarget	4	2160449	w	0	47.0	n/a	n/a	10
2162.499	0.0	target	5	2162499	n	1	20.0	1	0.4666558	10
2162.866	0.5	BAD keypress	1	2162866	n/a	n/a	n/a	n/a	n/a	n/a
2163.116	0.0	keypress	3	2163116	n/a	n/a	n/a	n/a	n/a	n/a
2164.649	0.0	nontarget	4	2164649	ä	0	33.0	n/a	n/a	10
2166.766	0.0	nontarget	4	2166766	ö	0	24.0	n/a	n/a	10
2169.132	0.0	target	5	2169132	v	1	39.0	1	0.4091496	10
2169.432	0.5	BAD keypress	1	2169432	n/a	n/a	n/a	n/a	n/a	n/a
2169.682	0.0	keypress	3	2169682	n/a	n/a	n/a	n/a	n/a	n/a
2170.932	0.0	nontarget	4	2170932	a	0	16.0	n/a	n/a	10
2172.982	0.0	nontarget	4	2172982	i	0	20.0	n/a	n/a	10
2175.115	0.0	nontarget	4	2175115	ä	0	25.0	n/a	n/a	10
2177.282	0.0	nontarget	4	2177282	g	0	27.0	n/a	n/a	10
2179.615	0.0	nontarget	4	2179615	x	0	37.0	n/a	n/a	10
2182.098	0.0	nontarget	4	2182098	e	0	46.0	n/a	n/a	10
2184.565	0.0	nontarget	4	2184565	ä	0	45.0	n/a	n/a	10
2186.581	0.0	nontarget	4	2186581	p	0	18.0	n/a	n/a	10
2188.698	0.0	nontarget	4	2188698	a	0	24.0	n/a	n/a	10
2190.715	0.0	nontarget	4	2190715	f	0	18.0	n/a	n/a	10
2192.915	0.0	nontarget	4	2192915	n	0	29.0	n/a	n/a	10
2194.914	0.0	nontarget	4	2194914	q	0	17.0	n/a	n/a	10
2197.414	0.0	nontarget	4	2197414	ü	0	47.0	n/a	n/a	10
2199.498	0.0	nontarget	4	2199498	a	0	22.0	n/a	n/a	10
2201.814	0.0	nontarget	4	2201814	v	0	36.0	n/a	n/a	10
2204.364	0.0	nontarget	4	2204364	y	0	50.0	n/a	n/a	10
2206.747	0.0	nontarget	4	2206747	g	0	40.0	n/a	n/a	10
2208.764	0.0	nontarget	4	2208764	i	0	18.0	n/a	n/a	10
2211.08	0.0	target	5	2211080	d	1	36.0	1	0.4740974	10
2211.431	0.5	BAD keypress	1	2211431	n/a	n/a	n/a	n/a	n/a	n/a
2211.681	0.0	keypress	3	2211681	n/a	n/a	n/a	n/a	n/a	n/a
2213.38	0.0	nontarget	4	2213380	n	0	43.0	n/a	n/a	10
2215.914	0.0	nontarget	4	2215914	w	0	49.0	n/a	n/a	10
2217.997	0.0	nontarget	4	2217997	ä	0	22.0	n/a	n/a	10
2220.18	0.0	nontarget	4	2220180	y	0	28.0	n/a	n/a	10
2222.63	0.0	nontarget	4	2222630	x	0	44.0	n/a	n/a	10
2224.747	0.0	nontarget	4	2224747	p	0	24.0	n/a	n/a	10
2226.696	0.0	target	5	2226696	p	1	14.0	1	0.5050251	10
2227.063	0.5	BAD keypress	1	2227063	n/a	n/a	n/a	n/a	n/a	n/a
2227.313	0.0	keypress	3	2227313	n/a	n/a	n/a	n/a	n/a	n/a
2228.946	0.0	nontarget	4	2228946	q	0	39.0	n/a	n/a	10
2231.263	0.0	nontarget	4	2231263	v	0	36.0	n/a	n/a	10
2233.646	0.0	nontarget	4	2233646	a	0	40.0	n/a	n/a	10
2235.629	0.0	nontarget	4	2235629	j	0	16.0	n/a	n/a	10
2236.729	67.88100000000031	BAD_break	2	2236729	n/a	n/a	n/a	n/a	n/a	n/a
2305.11	0.0	nontarget	4	2305110	x	0	21.0	n/a	n/a	11
2307.06	0.0	nontarget	4	2307060	m	0	14.0	n/a	n/a	11
2309.176	0.0	nontarget	4	2309176	g	0	24.0	n/a	n/a	11
2311.376	0.0	nontarget	4	2311376	ß	0	29.0	n/a	n/a	11
2313.809	0.0	nontarget	4	2313809	ä	0	43.0	n/a	n/a	11
2315.843	0.0	nontarget	4	2315843	w	0	19.0	n/a	n/a	11
2318.226	0.0	target	5	2318226	q	1	40.0	1	0.4414348	11
2318.609	0.5	BAD keypress	1	2318609	n/a	n/a	n/a	n/a	n/a	n/a
2318.859	0.0	keypress	3	2318859	n/a	n/a	n/a	n/a	n/a	n/a
2320.309	0.0	nontarget	4	2320309	g	0	27.0	n/a	n/a	11
2322.359	0.0	nontarget	4	2322359	v	0	20.0	n/a	n/a	11
2324.642	0.0	nontarget	4	2324642	y	0	34.0	n/a	n/a	11
2327.125	0.0	target	5	2327125	p	1	46.0	1	0.4372374	11
2327.475	0.5	BAD keypress	1	2327475	n/a	n/a	n/a	n/a	n/a	n/a
2327.725	0.0	keypress	3	2327725	n/a	n/a	n/a	n/a	n/a	n/a
2329.509	0.0	nontarget	4	2329509	m	0	48.0	n/a	n/a	11
2331.875	0.0	nontarget	4	2331875	u	0	39.0	n/a	n/a	11
2333.842	0.0	nontarget	4	2333842	v	0	15.0	n/a	n/a	11
2335.842	0.0	nontarget	4	2335842	d	0	17.0	n/a	n/a	11
2338.092	0.0	nontarget	4	2338092	w	0	32.0	n/a	n/a	11
2340.558	0.0	nontarget	4	2340558	b	0	45.0	n/a	n/a	11
2342.841	0.0	target	5	2342841	f	1	34.0	1	0.4482394	11
2343.208	0.5	BAD keypress	1	2343208	n/a	n/a	n/a	n/a	n/a	n/a
2343.458	0.0	keypress	3	2343458	n/a	n/a	n/a	n/a	n/a	n/a
2345.108	0.0	nontarget	4	2345108	e	0	40.0	n/a	n/a	11
2347.341	0.0	nontarget	4	2347341	n	0	31.0	n/a	n/a	11
2349.624	0.0	nontarget	4	2349624	z	0	34.0	n/a	n/a	11
2352.074	0.0	nontarget	4	2352074	g	0	44.0	n/a	n/a	11
2354.474	0.0	nontarget	4	2354474	u	0	41.0	n/a	n/a	11
2356.857	0.0	nontarget	4	2356857	d	0	40.0	n/a	n/a	11
2359.324	0.0	nontarget	4	2359324	ü	0	45.0	n/a	n/a	11
2361.524	0.0	nontarget	4	2361524	p	0	29.0	n/a	n/a	11
2363.724	0.0	nontarget	4	2363724	ö	0	29.0	n/a	n/a	11
2366.207	0.0	target	5	2366207	r	1	46.0	1	0.473013	11
2366.59	0.5	BAD keypress	1	2366590	n/a	n/a	n/a	n/a	n/a	n/a
2366.84	0.0	keypress	3	2366840	n/a	n/a	n/a	n/a	n/a	n/a
2368.107	0.0	nontarget	4	2368107	u	0	17.0	n/a	n/a	11
2370.657	0.0	nontarget	4	2370657	a	0	50.0	n/a	n/a	11
2373.123	0.0	nontarget	4	2373123	o	0	45.0	n/a	n/a	11
2375.09	0.0	nontarget	4	2375090	d	0	15.0	n/a	n/a	11
2377.557	0.0	nontarget	4	2377557	s	0	45.0	n/a	n/a	11
2380.006	0.0	target	5	2380006	ü	1	44.0	1	0.512647	11
2380.423	0.5	BAD keypress	1	2380423	n/a	n/a	n/a	n/a	n/a	n/a
2380.673	0.0	keypress	3	2380673	n/a	n/a	n/a	n/a	n/a	n/a
2382.29	0.0	nontarget	4	2382290	t	0	38.0	n/a	n/a	11
2384.273	0.0	nontarget	4	2384273	ü	0	16.0	n/a	n/a	11
2386.756	0.0	nontarget	4	2386756	m	0	46.0	n/a	n/a	11
2389.206	0.0	nontarget	4	2389206	s	0	44.0	n/a	n/a	11
2391.473	0.0	target	5	2391473	u	1	33.0	1	0.4376328	11
2391.823	0.5	BAD keypress	1	2391823	n/a	n/a	n/a	n/a	n/a	n/a
2392.073	0.0	keypress	3	2392073	n/a	n/a	n/a	n/a	n/a	n/a
2393.556	0.0	nontarget	4	2393556	q	0	30.0	n/a	n/a	11
2396.006	0.0	nontarget	4	2396006	i	0	44.0	n/a	n/a	11
2398.156	0.0	nontarget	4	2398156	o	0	26.0	n/a	n/a	11
2400.422	0.0	nontarget	4	2400422	t	0	33.0	n/a	n/a	11
2402.872	0.0	target	5	2402872	o	1	44.0	0	n/a	11
2405.405	0.0	target	5	2405405	y	1	18.0	1	0.5040006	11
2405.755	0.5	BAD keypress	1	2405755	n/a	n/a	n/a	n/a	n/a	n/a
2406.005	0.0	keypress	3	2406005	n/a	n/a	n/a	n/a	n/a	n/a
2407.772	0.0	nontarget	4	2407772	j	0	47.0	n/a	n/a	11
2410.305	0.0	nontarget	4	2410305	l	0	49.0	n/a	n/a	11
2412.805	0.0	nontarget	4	2412805	b	0	47.0	n/a	n/a	11
2415.288	0.0	nontarget	4	2415288	v	0	46.0	n/a	n/a	11
2417.738	0.0	nontarget	4	2417738	q	0	44.0	n/a	n/a	11
2420.171	0.0	target	5	2420171	z	1	43.0	1	0.4250115	11
2420.521	0.5	BAD keypress	1	2420521	n/a	n/a	n/a	n/a	n/a	n/a
2420.771	0.0	keypress	3	2420771	n/a	n/a	n/a	n/a	n/a	n/a
2422.421	0.0	nontarget	4	2422421	f	0	40.0	n/a	n/a	11
2424.888	0.0	nontarget	4	2424888	s	0	45.0	n/a	n/a	11
2427.438	0.0	nontarget	4	2427438	x	0	50.0	n/a	n/a	11
2429.638	0.0	nontarget	4	2429638	u	0	29.0	n/a	n/a	11
2432.088	0.0	nontarget	4	2432088	k	0	44.0	n/a	n/a	11
2434.404	0.0	nontarget	4	2434404	t	0	36.0	n/a	n/a	11
2436.404	0.0	nontarget	4	2436404	s	0	17.0	n/a	n/a	11
2438.687	0.0	nontarget	4	2438687	w	0	34.0	n/a	n/a	11
2441.22	0.0	target	5	2441220	g	1	49.0	1	0.4465218	11
2441.571	0.5	BAD keypress	1	2441571	n/a	n/a	n/a	n/a	n/a	n/a
2441.821	0.0	keypress	3	2441821	n/a	n/a	n/a	n/a	n/a	n/a
2443.154	0.0	nontarget	4	2443154	b	0	21.0	n/a	n/a	11
2445.437	0.0	nontarget	4	2445437	z	0	34.0	n/a	n/a	11
2447.387	0.0	nontarget	4	2447387	g	0	14.0	n/a	n/a	11
2449.737	0.0	nontarget	4	2449737	d	0	38.0	n/a	n/a	11
2452.27	0.0	target	5	2452270	i	1	49.0	1	0.4682668	11
2452.637	0.5	BAD keypress	1	2452637	n/a	n/a	n/a	n/a	n/a	n/a
2452.887	0.0	keypress	3	2452887	n/a	n/a	n/a	n/a	n/a	n/a
2454.17	0.0	nontarget	4	2454170	r	0	18.0	n/a	n/a	11
2455.27	49.46399999999994	BAD_break	2	2455270	n/a	n/a	n/a	n/a	n/a	n/a
2505.234	0.0	nontarget	4	2505234	m	0	19.0	n/a	n/a	12
2507.234	0.0	target	5	2507234	j	1	17.0	1	0.4442125	12
2507.601	0.5	BAD keypress	1	2507601	n/a	n/a	n/a	n/a	n/a	n/a
2507.851	0.0	keypress	3	2507851	n/a	n/a	n/a	n/a	n/a	n/a
2509.101	0.0	nontarget	4	2509101	q	0	15.0	n/a	n/a	12
2511.184	0.0	nontarget	4	2511184	f	0	22.0	n/a	n/a	12
2513.151	0.0	target	5	2513151	m	1	15.0	1	0.3994658	12
2513.467	0.5	BAD keypress	1	2513467	n/a	n/a	n/a	n/a	n/a	n/a
2513.717	0.0	keypress	3	2513717	n/a	n/a	n/a	n/a	n/a	n/a
2515.051	0.0	nontarget	4	2515051	m	0	21.0	n/a	n/a	12
2517.15	0.0	nontarget	4	2517150	u	0	23.0	n/a	n/a	12
2519.317	0.0	nontarget	4	2519317	q	0	27.0	n/a	n/a	12
2521.6	0.0	nontarget	4	2521600	t	0	34.0	n/a	n/a	12
2524.133	0.0	nontarget	4	2524133	x	0	49.0	n/a	n/a	12
2526.533	0.0	nontarget	4	2526533	b	0	41.0	n/a	n/a	12
2529.067	0.0	nontarget	4	2529067	l	0	49.0	n/a	n/a	12
2531.617	0.0	nontarget	4	2531617	j	0	50.0	n/a	n/a	12
2534.0	0.0	nontarget	4	2534000	e	0	40.0	n/a	n/a	12
2536.15	0.0	target	5	2536150	x	1	26.0	1	0.4227202	12
2536.483	0.5	BAD keypress	1	2536483	n/a	n/a	n/a	n/a	n/a	n/a
2536.733	0.0	keypress	3	2536733	n/a	n/a	n/a	n/a	n/a	n/a
2538.116	0.0	nontarget	4	2538116	z	0	24.0	n/a	n/a	12
2540.299	0.0	nontarget	4	2540299	n	0	28.0	n/a	n/a	12
2542.799	0.0	nontarget	4	2542799	s	0	47.0	n/a	n/a	12
2545.083	0.0	nontarget	4	2545083	c	0	34.0	n/a	n/a	12
2547.249	0.0	nontarget	4	2547249	j	0	27.0	n/a	n/a	12
2549.532	0.0	nontarget	4	2549532	i	0	34.0	n/a	n/a	12
2551.699	0.0	target	5	2551699	l	1	27.0	1	0.4083671	12
2552.032	0.5	BAD keypress	1	2552032	n/a	n/a	n/a	n/a	n/a	n/a
2552.282	0.0	keypress	3	2552282	n/a	n/a	n/a	n/a	n/a	n/a
2553.816	0.0	nontarget	4	2553816	o	0	32.0	n/a	n/a	12
2555.949	0.0	nontarget	4	2555949	q	0	25.0	n/a	n/a	12
2557.965	0.0	nontarget	4	2557965	t	0	18.0	n/a	n/a	12
2560.149	0.0	nontarget	4	2560149	p	0	28.0	n/a	n/a	12
2562.299	0.0	nontarget	4	2562299	j	0	26.0	n/a	n/a	12
2564.465	0.0	nontarget	4	2564465	s	0	27.0	n/a	n/a	12
2566.548	0.0	target	5	2566548	a	1	22.0	1	0.5661156	12
2566.982	0.5	BAD keypress	1	2566982	n/a	n/a	n/a	n/a	n/a	n/a
2567.232	0.0	keypress	3	2567232	n/a	n/a	n/a	n/a	n/a	n/a
2569.032	0.0	nontarget	4	2569032	g	0	48.0	n/a	n/a	12
2571.131	0.0	nontarget	4	2571131	ü	0	23.0	n/a	n/a	12
2573.498	0.0	nontarget	4	2573498	z	0	39.0	n/a	n/a	12
2575.515	0.0	nontarget	4	2575515	y	0	18.0	n/a	n/a	12
2578.065	0.0	nontarget	4	2578065	d	0	50.0	n/a	n/a	12
2580.198	0.0	target	5	2580198	m	1	25.0	1	0.4517408	12
2580.498	0.5	BAD keypress	1	2580498	n/a	n/a	n/a	n/a	n/a	n/a
2580.748	0.0	keypress	3	2580748	n/a	n/a	n/a	n/a	n/a	n/a
2582.214	0.0	nontarget	4	2582214	x	0	29.0	n/a	n/a	12
2584.448	0.0	nontarget	4	2584448	u	0	31.0	n/a	n/a	12
2586.397	0.0	nontarget	4	2586397	i	0	14.0	n/a	n/a	12
2588.581	0.0	nontarget	4	2588581	f	0	28.0	n/a	n/a	12
2590.764	0.0	nontarget	4	2590764	o	0	28.0	n/a	n/a	12
2593.114	0.0	nontarget	4	2593114	g	0	38.0	n/a	n/a	12
2595.647	0.0	nontarget	4	2595647	n	0	49.0	n/a	n/a	12
2598.03	0.0	nontarget	4	2598030	k	0	40.0	n/a	n/a	12
2600.514	0.0	target	5	2600514	t	1	46.0	1	0.470593	12
2600.847	0.5	BAD keypress	1	2600847	n/a	n/a	n/a	n/a	n/a	n/a
2601.097	0.0	keypress	3	2601097	n/a	n/a	n/a	n/a	n/a	n/a
2602.43	0.0	nontarget	4	2602430	s	0	21.0	n/a	n/a	12
2604.697	0.0	nontarget	4	2604697	ä	0	33.0	n/a	n/a	12
2606.947	0.0	nontarget	4	2606947	x	0	32.0	n/a	n/a	12
2609.396	0.0	nontarget	4	2609396	ß	0	44.0	n/a	n/a	12
2611.746	0.0	nontarget	4	2611746	j	0	38.0	n/a	n/a	12
2614.196	0.0	target	5	2614196	i	1	44.0	1	0.4989188	12
2614.546	0.5	BAD keypress	1	2614546	n/a	n/a	n/a	n/a	n/a	n/a
2614.796	0.0	keypress	3	2614796	n/a	n/a	n/a	n/a	n/a	n/a
2616.096	0.0	nontarget	4	2616096	h	0	19.0	n/a	n/a	12
2618.496	0.0	nontarget	4	2618496	ö	0	41.0	n/a	n/a	12
2620.779	0.0	nontarget	4	2620779	t	0	34.0	n/a	n/a	12
2622.896	0.0	nontarget	4	2622896	s	0	24.0	n/a	n/a	12
2625.262	0.0	target	5	2625262	ü	1	39.0	1	0.455973	12
2625.596	0.5	BAD keypress	1	2625596	n/a	n/a	n/a	n/a	n/a	n/a
2625.846	0.0	keypress	3	2625846	n/a	n/a	n/a	n/a	n/a	n/a
2627.062	0.0	nontarget	4	2627062	c	0	14.0	n/a	n/a	12
2629.512	0.0	nontarget	4	2629512	l	0	44.0	n/a	n/a	12
2631.995	0.0	nontarget	4	2631995	v	0	46.0	n/a	n/a	12
2634.062	0.0	nontarget	4	2634062	ß	0	21.0	n/a	n/a	12
2636.495	0.0	nontarget	4	2636495	h	0	43.0	n/a	n/a	12
2638.945	0.0	target	5	2638945	h	1	44.0	1	0.4843222	12
2639.329	0.5	BAD keypress	1	2639329	n/a	n/a	n/a	n/a	n/a	n/a
2639.579	0.0	keypress	3	2639579	n/a	n/a	n/a	n/a	n/a	n/a
2640.845	0.0	nontarget	4	2640845	e	0	17.0	n/a	n/a	12
2643.362	0.0	nontarget	4	2643362	ß	0	48.0	n/a	n/a	12
2645.878	0.0	target	5	2645878	u	1	48.0	1	0.4947689	12
2646.228	0.5	BAD keypress	1	2646228	n/a	n/a	n/a	n/a	n/a	n/a
2646.478	0.0	keypress	3	2646478	n/a	n/a	n/a	n/a	n/a	n/a
2648.061	0.0	target	5	2648061	f	1	36.0	1	0.4393894	12
2648.395	0.5	BAD keypress	1	2648395	n/a	n/a	n/a	n/a	n/a	n/a
2648.645	0.0	keypress	3	2648645	n/a	n/a	n/a	n/a	n/a	n/a
2649.961	0.0	target	5	2649961	l	1	20.0	1	0.4593664	12
2650.311	0.5	BAD keypress	1	2650311	n/a	n/a	n/a	n/a	n/a	n/a
2650.561	0.0	keypress	3	2650561	n/a	n/a	n/a	n/a	n/a	n/a
2651.661	49.91499999999997	BAD_break	2	2651661	n/a	n/a	n/a	n/a	n/a	n/a
2702.076	0.0	nontarget	4	2702076	u	0	44.0	n/a	n/a	13
2704.576	0.0	nontarget	4	2704576	a	0	47.0	n/a	n/a	13
2706.909	0.0	nontarget	4	2706909	l	0	37.0	n/a	n/a	13
2709.442	0.0	target	5	2709442	q	1	49.0	1	0.462501	13
2709.792	0.5	BAD keypress	1	2709792	n/a	n/a	n/a	n/a	n/a	n/a
2710.042	0.0	keypress	3	2710042	n/a	n/a	n/a	n/a	n/a	n/a
2711.309	0.0	nontarget	4	2711309	b	0	16.0	n/a	n/a	13
2713.342	0.0	nontarget	4	2713342	w	0	19.0	n/a	n/a	13
2715.825	0.0	nontarget	4	2715825	c	0	46.0	n/a	n/a	13
2717.992	0.0	nontarget	4	2717992	ü	0	27.0	n/a	n/a	13
2720.525	0.0	target	5	2720525	a	1	49.0	1	0.4348915	13
2720.825	0.5	BAD keypress	1	2720825	n/a	n/a	n/a	n/a	n/a	n/a
2721.075	0.0	keypress	3	2721075	n/a	n/a	n/a	n/a	n/a	n/a
2722.492	0.0	nontarget	4	2722492	v	0	26.0	n/a	n/a	13
2724.991	0.0	nontarget	4	2724991	g	0	47.0	n/a	n/a	13
2727.108	0.0	nontarget	4	2727108	p	0	24.0	n/a	n/a	13
2729.591	0.0	nontarget	4	2729591	s	0	46.0	n/a	n/a	13
2731.924	0.0	target	5	2731924	i	1	37.0	1	0.4746484	13
2732.291	0.5	BAD keypress	1	2732291	n/a	n/a	n/a	n/a	n/a	n/a
2732.541	0.0	keypress	3	2732541	n/a	n/a	n/a	n/a	n/a	n/a
2734.241	0.0	target	5	2734241	w	1	43.0	1	0.4139491	13
2734.541	0.5	BAD keypress	1	2734541	n/a	n/a	n/a	n/a	n/a	n/a
2734.791	0.0	keypress	3	2734791	n/a	n/a	n/a	n/a	n/a	n/a
2736.424	0.0	nontarget	4	2736424	y	0	39.0	n/a	n/a	13
2738.441	0.0	nontarget	4	2738441	ö	0	18.0	n/a	n/a	13
2740.807	0.0	target	5	2740807	n	1	39.0	1	0.407102	13
2741.074	0.5	BAD keypress	1	2741074	n/a	n/a	n/a	n/a	n/a	n/a
2741.324	0.0	keypress	3	2741324	n/a	n/a	n/a	n/a	n/a	n/a
2742.624	0.0	target	5	2742624	o	1	18.0	1	0.4303121	13
2742.941	0.5	BAD keypress	1	2742941	n/a	n/a	n/a	n/a	n/a	n/a
2743.191	0.0	keypress	3	2743191	n/a	n/a	n/a	n/a	n/a	n/a
2744.924	0.0	target	5	2744924	p	1	45.0	1	0.4023035	13
2745.224	0.5	BAD keypress	1	2745224	n/a	n/a	n/a	n/a	n/a	n/a
2745.474	0.0	keypress	3	2745474	n/a	n/a	n/a	n/a	n/a	n/a
2746.991	0.0	nontarget	4	2746991	p	0	32.0	n/a	n/a	13
2749.524	0.0	nontarget	4	2749524	d	0	49.0	n/a	n/a	13
2751.907	0.0	nontarget	4	2751907	ü	0	40.0	n/a	n/a	13
2754.357	0.0	target	5	2754357	l	1	44.0	1	0.4407375	13
2754.707	0.5	BAD keypress	1	2754707	n/a	n/a	n/a	n/a	n/a	n/a
2754.957	0.0	keypress	3	2754957	n/a	n/a	n/a	n/a	n/a	n/a
2756.623	0.0	nontarget	4	2756623	y	0	41.0	n/a	n/a	13
2759.057	0.0	nontarget	4	2759057	j	0	43.0	n/a	n/a	13
2761.273	0.0	nontarget	4	2761273	r	0	30.0	n/a	n/a	13
2763.473	0.0	target	5	2763473	d	1	29.0	1	0.4278754	13
2763.79	0.5	BAD keypress	1	2763790	n/a	n/a	n/a	n/a	n/a	n/a
2764.04	0.0	keypress	3	2764040	n/a	n/a	n/a	n/a	n/a	n/a
2765.823	0.0	nontarget	4	2765823	k	0	47.0	n/a	n/a	13
2768.056	0.0	nontarget	4	2768056	d	0	31.0	n/a	n/a	13
2770.439	0.0	nontarget	4	2770439	z	0	40.0	n/a	n/a	13
2772.656	0.0	nontarget	4	2772656	ö	0	30.0	n/a	n/a	13
2774.939	0.0	target	5	2774939	n	1	34.0	1	0.5127527	13
2775.339	0.5	BAD keypress	1	2775339	n/a	n/a	n/a	n/a	n/a	n/a
2775.589	0.0	keypress	3	2775589	n/a	n/a	n/a	n/a	n/a	n/a
2777.123	0.0	nontarget	4	2777123	w	0	33.0	n/a	n/a	13
2779.522	0.0	nontarget	4	2779522	ß	0	41.0	n/a	n/a	13
2781.989	0.0	nontarget	4	2781989	q	0	45.0	n/a	n/a	13
2784.322	0.0	nontarget	4	2784322	ä	0	37.0	n/a	n/a	13
2786.505	0.0	nontarget	4	2786505	k	0	28.0	n/a	n/a	13
2788.989	0.0	target	5	2788989	z	1	46.0	1	0.4785527	13
2789.372	0.5	BAD keypress	1	2789372	n/a	n/a	n/a	n/a	n/a	n/a
2789.622	0.0	keypress	3	2789622	n/a	n/a	n/a	n/a	n/a	n/a
2791.155	0.0	nontarget	4	2791155	v	0	33.0	n/a	n/a	13
2793.522	0.0	nontarget	4	2793522	ö	0	39.0	n/a	n/a	13
2795.922	0.0	nontarget	4	2795922	f	0	41.0	n/a	n/a	13
2797.905	0.0	nontarget	4	2797905	c	0	16.0	n/a	n/a	13
2800.388	0.0	nontarget	4	2800388	i	0	46.0	n/a	n/a	13
2802.521	0.0	nontarget	4	2802521	k	0	25.0	n/a	n/a	13
2804.938	0.0	nontarget	4	2804938	e	0	42.0	n/a	n/a	13
2806.955	0.0	nontarget	4	2806955	d	0	18.0	n/a	n/a	13
2809.171	0.0	nontarget	4	2809171	t	0	30.0	n/a	n/a	13
2811.538	0.0	nontarget	4	2811538	f	0	39.0	n/a	n/a	13
2814.038	0.0	nontarget	4	2814038	ß	0	47.0	n/a	n/a	13
2816.571	0.0	nontarget	4	2816571	l	0	49.0	n/a	n/a	13
2818.554	0.0	nontarget	4	2818554	r	0	16.0	n/a	n/a	13
2820.904	0.0	nontarget	4	2820904	h	0	38.0	n/a	n/a	13
2823.287	0.0	nontarget	4	2823287	ö	0	40.0	n/a	n/a	13
2825.604	0.0	nontarget	4	2825604	x	0	36.0	n/a	n/a	13
2828.137	0.0	nontarget	4	2828137	y	0	49.0	n/a	n/a	13
2830.17	0.0	nontarget	4	2830170	k	0	19.0	n/a	n/a	13
2832.587	0.0	target	5	2832587	t	1	42.0	1	0.4614342	13
2832.92	0.5	BAD keypress	1	2832920	n/a	n/a	n/a	n/a	n/a	n/a
2833.17	0.0	keypress	3	2833170	n/a	n/a	n/a	n/a	n/a	n/a
2834.47	0.0	nontarget	4	2834470	p	0	19.0	n/a	n/a	13
2836.553	0.0	nontarget	4	2836553	o	0	22.0	n/a	n/a	13
2839.003	0.0	nontarget	4	2839003	ß	0	44.0	n/a	n/a	13
2841.086	0.0	nontarget	4	2841086	i	0	22.0	n/a	n/a	13
2843.153	0.0	nontarget	4	2843153	c	0	21.0	n/a	n/a	13
2845.103	0.0	nontarget	4	2845103	ä	0	14.0	n/a	n/a	13
2847.053	0.0	nontarget	4	2847053	m	0	14.0	n/a	n/a	13
2849.486	0.0	target	5	2849486	o	1	43.0	1	0.4570715	13
2849.819	0.5	BAD keypress	1	2849819	n/a	n/a	n/a	n/a	n/a	n/a
2850.069	0.0	keypress	3	2850069	n/a	n/a	n/a	n/a	n/a	n/a
2851.169	65.98100000000022	BAD_break	2	2851169	n/a	n/a	n/a	n/a	n/a	n/a
2917.65	0.0	nontarget	4	2917650	v	0	17.0	n/a	n/a	14
2919.633	0.0	nontarget	4	2919633	f	0	16.0	n/a	n/a	14
2921.983	0.0	nontarget	4	2921983	l	0	38.0	n/a	n/a	14
2924.266	0.0	nontarget	4	2924266	p	0	34.0	n/a	n/a	14
2926.566	0.0	nontarget	4	2926566	v	0	35.0	n/a	n/a	14
2928.799	0.0	nontarget	4	2928799	t	0	31.0	n/a	n/a	14
2931.199	0.0	nontarget	4	2931199	ü	0	41.0	n/a	n/a	14
2933.716	0.0	nontarget	4	2933716	i	0	48.0	n/a	n/a	14
2935.699	0.0	target	5	2935699	f	1	16.0	1	0.4463048	14
2936.066	0.5	BAD keypress	1	2936066	n/a	n/a	n/a	n/a	n/a	n/a
2936.316	0.0	keypress	3	2936316	n/a	n/a	n/a	n/a	n/a	n/a
2937.916	0.0	nontarget	4	2937916	f	0	36.0	n/a	n/a	14
2940.399	0.0	nontarget	4	2940399	p	0	46.0	n/a	n/a	14
2942.632	0.0	nontarget	4	2942632	g	0	31.0	n/a	n/a	14
2944.682	0.0	nontarget	4	2944682	k	0	20.0	n/a	n/a	14
2946.798	0.0	nontarget	4	2946798	y	0	24.0	n/a	n/a	14
2949.098	0.0	target	5	2949098	h	1	35.0	1	0.406008	14
2949.415	0.5	BAD keypress	1	2949415	n/a	n/a	n/a	n/a	n/a	n/a
2949.665	0.0	keypress	3	2949665	n/a	n/a	n/a	n/a	n/a	n/a
2950.998	0.0	nontarget	4	2950998	ö	0	21.0	n/a	n/a	14
2953.548	0.0	nontarget	4	2953548	n	0	50.0	n/a	n/a	14
2955.931	0.0	nontarget	4	2955931	t	0	40.0	n/a	n/a	14
2958.031	0.0	nontarget	4	2958031	i	0	23.0	n/a	n/a	14
2960.215	0.0	nontarget	4	2960215	o	0	28.0	n/a	n/a	14
2962.314	0.0	target	5	2962314	o	1	23.0	1	0.3889563	14
2962.581	0.5	BAD keypress	1	2962581	n/a	n/a	n/a	n/a	n/a	n/a
2962.831	0.0	keypress	3	2962831	n/a	n/a	n/a	n/a	n/a	n/a
2964.131	0.0	nontarget	4	2964131	f	0	19.0	n/a	n/a	14
2966.248	0.0	target	5	2966248	ä	1	24.0	1	0.455497	14
2966.581	0.5	BAD keypress	1	2966581	n/a	n/a	n/a	n/a	n/a	n/a
2966.831	0.0	keypress	3	2966831	n/a	n/a	n/a	n/a	n/a	n/a
2968.114	0.0	nontarget	4	2968114	a	0	18.0	n/a	n/a	14
2970.514	0.0	nontarget	4	2970514	p	0	41.0	n/a	n/a	14
2972.481	0.0	nontarget	4	2972481	c	0	15.0	n/a	n/a	14
2974.881	0.0	target	5	2974881	w	1	41.0	1	0.445993	14
2975.197	0.5	BAD keypress	1	2975197	n/a	n/a	n/a	n/a	n/a	n/a
2975.447	0.0	keypress	3	2975447	n/a	n/a	n/a	n/a	n/a	n/a
2976.747	0.0	nontarget	4	2976747	n	0	19.0	n/a	n/a	14
2978.847	0.0	target	5	2978847	ü	1	23.0	1	0.4632363	14
2979.197	0.5	BAD keypress	1	2979197	n/a	n/a	n/a	n/a	n/a	n/a
2979.447	0.0	keypress	3	2979447	n/a	n/a	n/a	n/a	n/a	n/a
2980.73	0.0	nontarget	4	2980730	f	0	18.0	n/a	n/a	14
2983.18	0.0	nontarget	4	2983180	a	0	44.0	n/a	n/a	14
2985.73	0.0	nontarget	4	2985730	ö	0	50.0	n/a	n/a	14
2987.947	0.0	nontarget	4	2987947	y	0	30.0	n/a	n/a	14
2990.18	0.0	nontarget	4	2990180	t	0	31.0	n/a	n/a	14
2992.213	0.0	nontarget	4	2992213	ß	0	19.0	n/a	n/a	14
2994.246	0.0	nontarget	4	2994246	n	0	19.0	n/a	n/a	14
2996.43	0.0	nontarget	4	2996430	e	0	28.0	n/a	n/a	14
2998.896	0.0	target	5	2998896	j	1	45.0	1	0.4766688	14
2999.296	0.5	BAD keypress	1	2999296	n/a	n/a	n/a	n/a	n/a	n/a
2999.546	0.0	keypress	3	2999546	n/a	n/a	n/a	n/a	n/a	n/a
3000.796	0.0	nontarget	4	3000796	ü	0	16.0	n/a	n/a	14
3003.096	0.0	nontarget	4	3003096	n	0	35.0	n/a	n/a	14
3005.413	0.0	nontarget	4	3005413	q	0	36.0	n/a	n/a	14
3007.896	0.0	target	5	3007896	w	1	46.0	1	0.4364972	14
3008.213	0.5	BAD keypress	1	3008213	n/a	n/a	n/a	n/a	n/a	n/a
3008.463	0.0	keypress	3	3008463	n/a	n/a	n/a	n/a	n/a	n/a
3010.196	0.0	nontarget	4	3010196	p	0	45.0	n/a	n/a	14
3012.162	0.0	nontarget	4	3012162	w	0	15.0	n/a	n/a	14
3014.246	0.0	nontarget	4	3014246	z	0	22.0	n/a	n/a	14
3016.312	0.0	nontarget	4	3016312	u	0	21.0	n/a	n/a	14
3018.262	0.0	nontarget	4	3018262	r	0	14.0	n/a	n/a	14
3020.495	0.0	nontarget	4	3020495	l	0	31.0	n/a	n/a	14
3022.962	0.0	nontarget	4	3022962	d	0	45.0	n/a	n/a	14
3025.028	0.0	nontarget	4	3025028	y	0	21.0	n/a	n/a	14
3026.995	0.0	nontarget	4	3026995	x	0	15.0	n/a	n/a	14
3028.978	0.0	nontarget	4	3028978	r	0	16.0	n/a	n/a	14
3030.978	0.0	target	5	3030978	w	1	17.0	1	0.4726152	14
3031.328	0.5	BAD keypress	1	3031328	n/a	n/a	n/a	n/a	n/a	n/a
3031.578	0.0	keypress	3	3031578	n/a	n/a	n/a	n/a	n/a	n/a
3033.178	0.0	target	5	3033178	k	1	37.0	1	0.4323925	14
3033.495	0.5	BAD keypress	1	3033495	n/a	n/a	n/a	n/a	n/a	n/a
3033.745	0.0	keypress	3	3033745	n/a	n/a	n/a	n/a	n/a	n/a
3035.278	0.0	nontarget	4	3035278	o	0	33.0	n/a	n/a	14
3037.428	0.0	nontarget	4	3037428	k	0	26.0	n/a	n/a	14
3039.478	0.0	nontarget	4	3039478	m	0	20.0	n/a	n/a	14
3041.961	0.0	nontarget	4	3041961	v	0	46.0	n/a	n/a	14
3044.128	0.0	nontarget	4	3044128	ß	0	27.0	n/a	n/a	14
3046.661	0.0	nontarget	4	3046661	ü	0	49.0	n/a	n/a	14
3047.761	7.798000000000229	BAD_break	2	3047761	n/a	n/a	n/a	n/a	n/a	n/a
